Raman-Spectrum _CDCl3 _spol9001.dat
27/09/2021
10:57:42
_CDCl3
_spol90 Temp: NON
X in nm	Y Signal 	Error Signal				
570.04000	0.09313	0.00052
570.08000	0.09135	0.00036
570.12000	0.09613	0.00033
570.16000	0.09506	0.00050
570.20000	0.08931	0.00048
570.24000	0.09216	0.00041
570.28000	0.10005	0.00039
570.32000	0.09995	0.00038
570.36000	0.09440	0.00058
570.40000	0.09343	0.00039
570.44000	0.09338	0.00027
570.48000	0.09496	0.00032
570.52000	0.08972	0.00040
570.56000	0.09425	0.00047
570.60000	0.09450	0.00027
570.64000	0.09613	0.00051
570.68000	0.09481	0.00033
570.72000	0.09685	0.00033
570.76000	0.09532	0.00051
570.80000	0.09318	0.00069
570.84000	0.09771	0.00034
570.88000	0.09807	0.00042
570.92000	0.10087	0.00025
570.96000	0.09623	0.00034
571.00000	0.09532	0.00033
571.04000	0.10275	0.00040
571.08000	0.09623	0.00034
571.12000	0.09537	0.00064
571.16000	0.09791	0.00050
571.20000	0.09797	0.00036
571.24000	0.09415	0.00041
571.28000	0.10092	0.00023
571.32000	0.09903	0.00051
571.36000	0.09903	0.00051
571.40000	0.10280	0.00034
571.44000	0.10464	0.00039
571.48000	0.10464	0.00032
571.52000	0.10657	0.00031
571.56000	0.10555	0.00031
571.60000	0.10764	0.00036
571.64000	0.10453	0.00044
571.68000	0.10453	0.00038
571.72000	0.10000	0.00048
571.76000	0.10357	0.00036
571.80000	0.10362	0.00046
571.84000	0.09725	0.00041
571.88000	0.09511	0.00046
571.92000	0.10540	0.00034
571.96000	0.10275	0.00033
572.00000	0.09802	0.00046
572.04000	0.09909	0.00053
572.08000	0.09919	0.00060
572.12000	0.09333	0.00050
572.16000	0.10082	0.00047
572.20000	0.09893	0.00059
572.24000	0.09333	0.00055
572.28000	0.09435	0.00031
572.32000	0.09639	0.00038
572.36000	0.09613	0.00040
572.40000	0.09710	0.00038
572.44000	0.09405	0.00038
572.48000	0.09323	0.00047
572.52000	0.09415	0.00034
572.56000	0.09547	0.00051
572.60000	0.08956	0.00034
572.64000	0.08860	0.00034
572.68000	0.08850	0.00040
572.72000	0.09323	0.00034
572.76000	0.09338	0.00048
572.80000	0.09150	0.00050
572.84000	0.09410	0.00023
572.88000	0.09333	0.00044
572.92000	0.09038	0.00032
572.96000	0.09043	0.00070
573.00000	0.08396	0.00034
573.04000	0.09145	0.00053
573.08000	0.09155	0.00033
573.12000	0.09043	0.00027
573.16000	0.09328	0.00040
573.20000	0.09048	0.00031
573.24000	0.09023	0.00051
573.28000	0.08926	0.00038
573.32000	0.08855	0.00025
573.36000	0.09236	0.00036
573.40000	0.09415	0.00052
573.44000	0.08844	0.00050
573.48000	0.09216	0.00034
573.52000	0.10010	0.00036
573.56000	0.10005	0.00039
573.60000	0.10214	0.00015
573.64000	0.09506	0.00055
573.68000	0.10270	0.00044
573.72000	0.09914	0.00050
573.76000	0.09598	0.00039
573.80000	0.10448	0.00033
573.84000	0.10448	0.00033
573.88000	0.10535	0.00034
573.92000	0.10840	0.00057
573.96000	0.10570	0.00053
574.00000	0.11314	0.00033
574.04000	0.10754	0.00040
574.08000	0.11502	0.00047
574.12000	0.10840	0.00034
574.16000	0.10835	0.00023
574.20000	0.11421	0.00044
574.24000	0.10932	0.00038
574.28000	0.11894	0.00036
574.32000	0.11940	0.00051
574.36000	0.11869	0.00034
574.40000	0.12169	0.00034
574.44000	0.12179	0.00051
574.48000	0.12251	0.00015
574.52000	0.11589	0.00062
574.56000	0.12057	0.00033
574.60000	0.12368	0.00025
574.64000	0.11411	0.00034
574.68000	0.12337	0.00031
574.72000	0.12312	0.00023
574.76000	0.12648	0.00042
574.80000	0.11609	0.00025
574.84000	0.11747	0.00038
574.88000	0.11304	0.00025
574.92000	0.11706	0.00025
574.96000	0.11782	0.00042
575.00000	0.11971	0.00041
575.04000	0.12001	0.00038
575.08000	0.11502	0.00034
575.12000	0.12337	0.00044
575.16000	0.11864	0.00041
575.20000	0.12546	0.00042
575.24000	0.13473	0.00015
575.28000	0.13035	0.00047
575.32000	0.13009	0.00039
575.36000	0.13355	0.00044
575.40000	0.12622	0.00047
575.44000	0.14236	0.00058
575.48000	0.12811	0.00058
575.52000	0.13763	0.00050
575.56000	0.14262	0.00034
575.60000	0.14236	0.00042
575.64000	0.14348	0.00023
575.68000	0.13585	0.00040
575.72000	0.14511	0.00025
575.76000	0.15351	0.00039
575.80000	0.15473	0.00052
575.84000	0.16319	0.00051
575.88000	0.15372	0.00034
575.92000	0.15367	0.00046
575.96000	0.17067	0.00046
576.00000	0.17342	0.00036
576.04000	0.17245	0.00044
576.08000	0.17031	0.00046
576.12000	0.17739	0.00053
576.16000	0.17337	0.00032
576.20000	0.17342	0.00036
576.24000	0.16700	0.00052
576.28000	0.17327	0.00050
576.32000	0.16232	0.00046
576.36000	0.16039	0.00025
576.40000	0.16777	0.00032
576.44000	0.15484	0.00041
576.48000	0.15168	0.00047
576.52000	0.15173	0.00069
576.56000	0.15107	0.00050
576.60000	0.14700	0.00031
576.64000	0.14516	0.00034
576.68000	0.14211	0.00041
576.72000	0.13865	0.00050
576.76000	0.12994	0.00033
576.80000	0.13035	0.00047
576.84000	0.12739	0.00051
576.88000	0.12434	0.00046
576.92000	0.12352	0.00058
576.96000	0.12245	0.00032
577.00000	0.11120	0.00036
577.04000	0.11125	0.00051
577.08000	0.11130	0.00042
577.12000	0.10265	0.00027
577.16000	0.10168	0.00038
577.20000	0.09511	0.00033
577.24000	0.09517	0.00025
577.28000	0.09079	0.00031
577.32000	0.09613	0.00046
577.36000	0.09440	0.00036
577.40000	0.09435	0.00031
577.44000	0.09491	0.00042
577.48000	0.08676	0.00036
577.52000	0.09124	0.00046
577.56000	0.08748	0.00046
577.60000	0.08666	0.00046
577.64000	0.08936	0.00046
577.68000	0.08982	0.00015
577.72000	0.08778	0.00015
577.76000	0.09063	0.00041
577.80000	0.09033	0.00042
577.84000	0.09165	0.00025
577.88000	0.09053	0.00040
577.92000	0.09226	0.00033
577.96000	0.09211	0.00034
578.00000	0.09695	0.00036
578.04000	0.09160	0.00025
578.08000	0.09074	0.00040
578.12000	0.09623	0.00034
578.16000	0.08956	0.00034
578.20000	0.09058	0.00052
578.24000	0.08860	0.00061
578.28000	0.08860	0.00041
578.32000	0.09435	0.00031
578.36000	0.08865	0.00076
578.40000	0.09328	0.00033
578.44000	0.09405	0.00059
578.48000	0.09517	0.00047
578.52000	0.09053	0.00056
578.56000	0.09033	0.00036
578.60000	0.09038	0.00046
578.64000	0.09420	0.00034
578.68000	0.09236	0.00036
578.72000	0.09165	0.00041
578.76000	0.09817	0.00033
578.80000	0.09430	0.00046
578.84000	0.09430	0.00033
578.88000	0.09410	0.00033
578.92000	0.09537	0.00038
578.96000	0.09236	0.00036
579.00000	0.09440	0.00042
579.04000	0.09430	0.00079
579.08000	0.09425	0.00041
579.12000	0.09919	0.00056
579.16000	0.09888	0.00033
579.20000	0.09629	0.00034
579.24000	0.09634	0.00033
579.28000	0.09623	0.00041
579.32000	0.09898	0.00062
579.36000	0.10362	0.00046
579.40000	0.09547	0.00023
579.44000	0.09532	0.00040
579.48000	0.10265	0.00053
579.52000	0.10560	0.00058
579.56000	0.10285	0.00047
579.60000	0.10535	0.00041
579.64000	0.10565	0.00051
579.68000	0.10280	0.00034
579.72000	0.10560	0.00048
579.76000	0.10550	0.00040
579.80000	0.10616	0.00039
579.84000	0.10754	0.00023
579.88000	0.11609	0.00041
579.92000	0.11319	0.00055
579.96000	0.10754	0.00040
580.00000	0.11482	0.00023
580.04000	0.11487	0.00048
580.08000	0.11222	0.00053
580.12000	0.10815	0.00036
580.16000	0.11207	0.00041
580.20000	0.10906	0.00056
580.24000	0.11222	0.00036
580.28000	0.11706	0.00034
580.32000	0.11018	0.00036
580.36000	0.11024	0.00032
580.40000	0.11319	0.00050
580.44000	0.10942	0.00034
580.48000	0.10912	0.00059
580.52000	0.11120	0.00027
580.56000	0.11288	0.00044
580.60000	0.12072	0.00034
580.64000	0.12067	0.00025
580.68000	0.11482	0.00046
580.72000	0.12918	0.00068
580.76000	0.12546	0.00058
580.80000	0.13198	0.00023
580.84000	0.12938	0.00041
580.88000	0.12536	0.00033
580.92000	0.12536	0.00040
580.96000	0.13014	0.00036
581.00000	0.12627	0.00047
581.04000	0.13182	0.00041
581.08000	0.14053	0.00052
581.12000	0.14323	0.00038
581.16000	0.15092	0.00058
581.20000	0.14409	0.00041
581.24000	0.14420	0.00046
581.28000	0.14796	0.00036
581.32000	0.14511	0.00034
581.36000	0.16395	0.00041
581.40000	0.15840	0.00041
581.44000	0.16028	0.00033
581.48000	0.16196	0.00041
581.52000	0.16232	0.00040
581.56000	0.17052	0.00047
581.60000	0.16334	0.00051
581.64000	0.16889	0.00044
581.68000	0.17245	0.00055
581.72000	0.17230	0.00036
581.76000	0.16894	0.00023
581.80000	0.16868	0.00038
581.84000	0.16721	0.00036
581.88000	0.16583	0.00055
581.92000	0.15753	0.00036
581.96000	0.16039	0.00047
582.00000	0.15479	0.00047
582.04000	0.14812	0.00025
582.08000	0.14705	0.00033
582.12000	0.14694	0.00036
582.16000	0.14878	0.00033
582.20000	0.13829	0.00027
582.24000	0.13478	0.00044
582.28000	0.14139	0.00044
582.32000	0.12831	0.00041
582.36000	0.12632	0.00041
582.40000	0.12648	0.00042
582.44000	0.12454	0.00036
582.48000	0.12347	0.00046
582.52000	0.12083	0.00038
582.56000	0.11797	0.00044
582.60000	0.11624	0.00038
582.64000	0.10835	0.00040
582.68000	0.10835	0.00040
582.72000	0.10815	0.00036
582.76000	0.10280	0.00034
582.80000	0.10540	0.00047
582.84000	0.09893	0.00050
582.88000	0.09802	0.00046
582.92000	0.09145	0.00042
582.96000	0.09450	0.00053
583.00000	0.09420	0.00041
583.04000	0.09043	0.00036
583.08000	0.09135	0.00053
583.12000	0.09343	0.00032
583.16000	0.09781	0.00041
583.20000	0.08931	0.00053
583.24000	0.09430	0.00040
583.28000	0.09399	0.00042
583.32000	0.09511	0.00046
583.36000	0.09328	0.00056
583.40000	0.08850	0.00040
583.44000	0.09623	0.00041
583.48000	0.09058	0.00025
583.52000	0.09354	0.00059
583.56000	0.09909	0.00053
583.60000	0.09903	0.00082
583.64000	0.09028	0.00044
583.68000	0.09242	0.00039
583.72000	0.08753	0.00025
583.76000	0.09145	0.00036
583.80000	0.09715	0.00040
583.84000	0.09593	0.00048
583.88000	0.09598	0.00032
583.92000	0.09710	0.00055
583.96000	0.09797	0.00027
584.00000	0.09990	0.00046
584.04000	0.09221	0.00052
584.08000	0.09822	0.00034
584.12000	0.09797	0.00027
584.16000	0.09797	0.00027
584.20000	0.09893	0.00059
584.24000	0.09715	0.00023
584.28000	0.10087	0.00041
584.32000	0.10448	0.00033
584.36000	0.10458	0.00036
584.40000	0.10550	0.00033
584.44000	0.10769	0.00046
584.48000	0.10744	0.00041
584.52000	0.10112	0.00036
584.56000	0.10947	0.00047
584.60000	0.11629	0.00036
584.64000	0.11227	0.00051
584.68000	0.11207	0.00034
584.72000	0.11792	0.00062
584.76000	0.11777	0.00050
584.80000	0.11675	0.00068
584.84000	0.11701	0.00033
584.88000	0.11981	0.00038
584.92000	0.12454	0.00027
584.96000	0.12093	0.00032
585.00000	0.11904	0.00040
585.04000	0.11609	0.00034
585.08000	0.11594	0.00031
585.12000	0.11431	0.00046
585.16000	0.11782	0.00053
585.20000	0.11675	0.00044
585.24000	0.11212	0.00040
585.28000	0.11380	0.00051
585.32000	0.11492	0.00031
585.36000	0.11497	0.00046
585.40000	0.11207	0.00034
585.44000	0.11685	0.00023
585.48000	0.10754	0.00040
585.52000	0.11202	0.00034
585.56000	0.10657	0.00038
585.60000	0.10647	0.00041
585.64000	0.10642	0.00025
585.68000	0.10448	0.00023
585.72000	0.10270	0.00059
585.76000	0.10087	0.00047
585.80000	0.10947	0.00047
585.84000	0.10066	0.00031
585.88000	0.10448	0.00033
585.92000	0.10637	0.00034
585.96000	0.10657	0.00038
586.00000	0.10316	0.00027
586.04000	0.09791	0.00031
586.08000	0.10453	0.00038
586.12000	0.09832	0.00025
586.16000	0.09898	0.00042
586.20000	0.10464	0.00032
586.24000	0.10464	0.00039
586.28000	0.10840	0.00025
586.32000	0.10469	0.00036
586.36000	0.11482	0.00039
586.40000	0.11757	0.00025
586.44000	0.12337	0.00044
586.48000	0.12337	0.00044
586.52000	0.12358	0.00050
586.56000	0.12088	0.00036
586.60000	0.12536	0.00046
586.64000	0.13401	0.00040
586.68000	0.13753	0.00041
586.72000	0.13182	0.00034
586.76000	0.14022	0.00036
586.80000	0.14216	0.00051
586.84000	0.14211	0.00041
586.88000	0.14206	0.00052
586.92000	0.15260	0.00050
586.96000	0.14776	0.00040
587.00000	0.14710	0.00034
587.04000	0.15540	0.00046
587.08000	0.15641	0.00060
587.12000	0.15652	0.00036
587.16000	0.15285	0.00023
587.20000	0.16512	0.00044
587.24000	0.15265	0.00023
587.28000	0.16049	0.00033
587.32000	0.15738	0.00041
587.36000	0.15173	0.00057
587.40000	0.14883	0.00050
587.44000	0.14883	0.00038
587.48000	0.14710	0.00041
587.52000	0.15173	0.00052
587.56000	0.14435	0.00051
587.60000	0.14226	0.00042
587.64000	0.13401	0.00046
587.68000	0.13467	0.00039
587.72000	0.13462	0.00053
587.76000	0.13488	0.00041
587.80000	0.12989	0.00052
587.84000	0.13014	0.00027
587.88000	0.12169	0.00041
587.92000	0.11696	0.00038
587.96000	0.11629	0.00027
588.00000	0.11599	0.00046
588.04000	0.12072	0.00052
588.08000	0.11039	0.00033
588.12000	0.11090	0.00060
588.16000	0.10927	0.00048
588.20000	0.10728	0.00044
588.24000	0.10387	0.00041
588.28000	0.09893	0.00031
588.32000	0.09888	0.00056
588.36000	0.09511	0.00051
588.40000	0.09537	0.00044
588.44000	0.09791	0.00020
588.48000	0.09140	0.00051
588.52000	0.08946	0.00044
588.56000	0.09537	0.00044
588.60000	0.09511	0.00046
588.64000	0.10010	0.00036
588.68000	0.09517	0.00047
588.72000	0.09155	0.00040
588.76000	0.08671	0.00044
588.80000	0.09506	0.00050
588.84000	0.09710	0.00044
588.88000	0.09700	0.00032
588.92000	0.09705	0.00042
588.96000	0.09430	0.00046
589.00000	0.10183	0.00047
589.04000	0.10443	0.00034
589.08000	0.10194	0.00023
589.12000	0.10377	0.00051
589.16000	0.10474	0.00038
589.20000	0.10464	0.00023
589.24000	0.11039	0.00046
589.28000	0.11411	0.00034
589.32000	0.11013	0.00038
589.36000	0.11125	0.00039
589.40000	0.11772	0.00033
589.44000	0.11976	0.00051
589.48000	0.11996	0.00042
589.52000	0.11884	0.00058
589.56000	0.11976	0.00060
589.60000	0.12429	0.00041
589.64000	0.12989	0.00047
589.68000	0.13676	0.00027
589.72000	0.13238	0.00041
589.76000	0.12826	0.00047
589.80000	0.12821	0.00051
589.84000	0.13452	0.00046
589.88000	0.13661	0.00038
589.92000	0.14053	0.00025
589.96000	0.15092	0.00042
590.00000	0.14969	0.00047
590.04000	0.14593	0.00036
590.08000	0.14608	0.00052
590.12000	0.14725	0.00040
590.16000	0.13686	0.00033
590.20000	0.14145	0.00033
590.24000	0.14404	0.00034
590.28000	0.14348	0.00060
590.32000	0.14414	0.00061
590.36000	0.14399	0.00033
590.40000	0.13284	0.00025
590.44000	0.14145	0.00040
590.48000	0.14145	0.00023
590.52000	0.13656	0.00056
590.56000	0.13473	0.00015
590.60000	0.13880	0.00048
590.64000	0.14608	0.00034
590.68000	0.14618	0.00034
590.72000	0.13019	0.00050
590.76000	0.14262	0.00052
590.80000	0.12912	0.00027
590.84000	0.12994	0.00046
590.88000	0.12831	0.00047
590.92000	0.12739	0.00046
590.96000	0.12709	0.00036
591.00000	0.11981	0.00031
591.04000	0.12240	0.00027
591.08000	0.11701	0.00033
591.12000	0.12169	0.00034
591.16000	0.11960	0.00034
591.20000	0.11629	0.00027
591.24000	0.11782	0.00048
591.28000	0.11792	0.00053
591.32000	0.11400	0.00052
591.36000	0.11472	0.00038
591.40000	0.10927	0.00042
591.44000	0.10830	0.00031
591.48000	0.10840	0.00025
591.52000	0.10540	0.00047
591.56000	0.10576	0.00038
591.60000	0.10560	0.00053
591.64000	0.10372	0.00064
591.68000	0.10372	0.00038
591.72000	0.09898	0.00062
591.76000	0.10367	0.00036
591.80000	0.10168	0.00031
591.84000	0.10173	0.00046
591.88000	0.10520	0.00036
591.92000	0.10448	0.00040
591.96000	0.09695	0.00042
592.00000	0.10275	0.00051
592.04000	0.10285	0.00025
592.08000	0.10168	0.00038
592.12000	0.09394	0.00051
592.16000	0.09420	0.00034
592.20000	0.10005	0.00046
592.24000	0.09354	0.00038
592.28000	0.09878	0.00041
592.32000	0.09323	0.00041
592.36000	0.09608	0.00038
592.40000	0.10255	0.00027
592.44000	0.10255	0.00027
592.48000	0.09700	0.00046
592.52000	0.09236	0.00053
592.56000	0.09328	0.00040
592.60000	0.09888	0.00033
592.64000	0.09705	0.00058
592.68000	0.09909	0.00058
592.72000	0.09903	0.00051
592.76000	0.10352	0.00064
592.80000	0.09812	0.00038
592.84000	0.09639	0.00038
592.88000	0.09695	0.00042
592.92000	0.09608	0.00038
592.96000	0.09323	0.00057
593.00000	0.09608	0.00055
593.04000	0.09603	0.00027
593.08000	0.09776	0.00034
593.12000	0.10540	0.00052
593.16000	0.09705	0.00048
593.20000	0.10352	0.00050
593.24000	0.10280	0.00047
593.28000	0.10535	0.00034
593.32000	0.10555	0.00055
593.36000	0.09873	0.00047
593.40000	0.09618	0.00025
593.44000	0.10367	0.00042
593.48000	0.09679	0.00025
593.52000	0.09878	0.00052
593.56000	0.10066	0.00038
593.60000	0.09797	0.00053
593.64000	0.09761	0.00044
593.68000	0.09802	0.00039
593.72000	0.10107	0.00023
593.76000	0.09705	0.00042
593.80000	0.10367	0.00042
593.84000	0.10183	0.00041
593.88000	0.10173	0.00023
593.92000	0.10183	0.00052
593.96000	0.10362	0.00039
594.00000	0.10270	0.00020
594.04000	0.09995	0.00064
594.08000	0.09965	0.00031
594.12000	0.10270	0.00031
594.16000	0.09970	0.00040
594.20000	0.10015	0.00050
594.24000	0.09730	0.00052
594.28000	0.09878	0.00047
594.32000	0.09741	0.00038
594.36000	0.10092	0.00033
594.40000	0.09791	0.00038
594.44000	0.10082	0.00025
594.48000	0.09496	0.00046
594.52000	0.09522	0.00052
594.56000	0.09522	0.00041
594.60000	0.09695	0.00027
594.64000	0.09542	0.00042
594.68000	0.08967	0.00047
594.72000	0.09130	0.00038
594.76000	0.09802	0.00023
594.80000	0.09797	0.00042
594.84000	0.09639	0.00031
594.88000	0.09425	0.00047
594.92000	0.09145	0.00042
594.96000	0.09710	0.00031
595.00000	0.09298	0.00042
595.04000	0.09231	0.00044
595.08000	0.09242	0.00039
595.12000	0.09140	0.00046
595.16000	0.09242	0.00032
595.20000	0.09903	0.00051
595.24000	0.09415	0.00052
595.28000	0.09914	0.00038
595.32000	0.09527	0.00041
595.36000	0.09985	0.00047
595.40000	0.09975	0.00034
595.44000	0.09822	0.00047
595.48000	0.09496	0.00039
595.52000	0.10448	0.00033
595.56000	0.09888	0.00060
595.60000	0.09990	0.00046
595.64000	0.10005	0.00051
595.68000	0.10015	0.00038
595.72000	0.10285	0.00057
595.76000	0.10560	0.00042
595.80000	0.10560	0.00062
595.84000	0.10285	0.00041
595.88000	0.10295	0.00033
595.92000	0.10168	0.00050
595.96000	0.10392	0.00034
596.00000	0.10362	0.00039
596.04000	0.10906	0.00040
596.08000	0.11110	0.00060
596.12000	0.10637	0.00034
596.16000	0.11227	0.00032
596.20000	0.10555	0.00055
596.24000	0.10744	0.00041
596.28000	0.10738	0.00047
596.32000	0.11130	0.00027
596.36000	0.11487	0.00027
596.40000	0.11115	0.00031
596.44000	0.11772	0.00051
596.48000	0.11125	0.00032
596.52000	0.11971	0.00047
596.56000	0.11981	0.00059
596.60000	0.11482	0.00051
596.64000	0.12373	0.00057
596.68000	0.12139	0.00027
596.72000	0.11202	0.00034
596.76000	0.11411	0.00041
596.80000	0.11879	0.00031
596.84000	0.12037	0.00042
596.88000	0.12077	0.00033
596.92000	0.12536	0.00023
596.96000	0.12159	0.00046
597.00000	0.12169	0.00025
597.04000	0.12923	0.00065
597.08000	0.12052	0.00055
597.12000	0.12510	0.00044
597.16000	0.12520	0.00065
597.20000	0.11772	0.00046
597.24000	0.11853	0.00033
597.28000	0.12159	0.00033
597.32000	0.12444	0.00042
597.36000	0.11787	0.00056
597.40000	0.12256	0.00044
597.44000	0.12256	0.00038
597.48000	0.11696	0.00031
597.52000	0.11869	0.00025
597.56000	0.10912	0.00044
597.60000	0.11298	0.00041
597.64000	0.11599	0.00046
597.68000	0.11405	0.00034
597.72000	0.10957	0.00051
597.76000	0.10901	0.00047
597.80000	0.11405	0.00025
597.84000	0.11680	0.00048
597.88000	0.11202	0.00041
597.92000	0.11319	0.00059
597.96000	0.11421	0.00020
598.00000	0.11054	0.00025
598.04000	0.11039	0.00056
598.08000	0.10718	0.00060
598.12000	0.10912	0.00044
598.16000	0.10662	0.00053
598.20000	0.11298	0.00047
598.24000	0.11395	0.00046
598.28000	0.11767	0.00041
598.32000	0.11298	0.00034
598.36000	0.11304	0.00041
598.40000	0.11212	0.00023
598.44000	0.11848	0.00031
598.48000	0.11665	0.00034
598.52000	0.11309	0.00041
598.56000	0.11288	0.00038
598.60000	0.12373	0.00041
598.64000	0.12332	0.00056
598.68000	0.11024	0.00046
598.72000	0.11360	0.00047
598.76000	0.11008	0.00033
598.80000	0.11421	0.00050
598.84000	0.11589	0.00042
598.88000	0.10738	0.00052
598.92000	0.10759	0.00038
598.96000	0.11222	0.00042
599.00000	0.11100	0.00047
599.04000	0.10540	0.00041
599.08000	0.10550	0.00040
599.12000	0.10280	0.00034
599.16000	0.10835	0.00033
599.20000	0.10183	0.00041
599.24000	0.10158	0.00039
599.28000	0.10265	0.00036
599.32000	0.10178	0.00052
599.36000	0.10387	0.00034
599.40000	0.10362	0.00051
599.44000	0.10285	0.00047
599.48000	0.10026	0.00034
599.52000	0.09995	0.00044
599.56000	0.09822	0.00034
599.60000	0.09837	0.00040
599.64000	0.10189	0.00047
599.68000	0.09211	0.00041
599.72000	0.10087	0.00025
599.76000	0.09710	0.00050
599.80000	0.09710	0.00038
599.84000	0.09725	0.00041
599.88000	0.09511	0.00046
599.92000	0.09527	0.00041
599.96000	0.09542	0.00036
600.00000	0.10005	0.00032
600.04000	0.09695	0.00036
600.08000	0.09924	0.00047
600.12000	0.09909	0.00048
600.16000	0.09797	0.00042
600.20000	0.09700	0.00032
600.24000	0.09690	0.00044
600.28000	0.10275	0.00040
600.32000	0.09812	0.00031
600.36000	0.10189	0.00057
600.40000	0.10173	0.00056
600.44000	0.09338	0.00070
600.48000	0.09532	0.00033
600.52000	0.09909	0.00048
600.56000	0.09715	0.00040
600.60000	0.09068	0.00034
600.64000	0.09618	0.00057
600.68000	0.09150	0.00050
600.72000	0.09155	0.00046
600.76000	0.09145	0.00042
600.80000	0.09135	0.00042
600.84000	0.09303	0.00064
600.88000	0.09150	0.00038
600.92000	0.09313	0.00041
600.96000	0.09440	0.00015
601.00000	0.09399	0.00027
601.04000	0.09522	0.00047
601.08000	0.08758	0.00041
601.12000	0.08946	0.00050
601.16000	0.09231	0.00038
601.20000	0.09221	0.00034
601.24000	0.09145	0.00048
601.28000	0.09140	0.00039
601.32000	0.09303	0.00031
601.36000	0.08834	0.00039
601.40000	0.09797	0.00015
601.44000	0.09211	0.00034
601.48000	0.09303	0.00044
601.52000	0.09231	0.00044
601.56000	0.09130	0.00044
601.60000	0.09135	0.00042
601.64000	0.09313	0.00041
601.68000	0.09313	0.00034
601.72000	0.09608	0.00044
601.76000	0.09797	0.00027
601.80000	0.09033	0.00027
601.84000	0.08839	0.00042
601.88000	0.08839	0.00053
601.92000	0.09074	0.00060
601.96000	0.09613	0.00033
602.00000	0.09150	0.00031
602.04000	0.09420	0.00034
602.08000	0.09165	0.00034
602.12000	0.09802	0.00051
602.16000	0.09522	0.00052
602.20000	0.09517	0.00041
602.24000	0.09679	0.00047
602.28000	0.09298	0.00048
602.32000	0.09532	0.00056
602.36000	0.09690	0.00044
602.40000	0.09517	0.00047
602.44000	0.09323	0.00047
602.48000	0.09313	0.00047
602.52000	0.09338	0.00048
602.56000	0.09333	0.00044
602.60000	0.09980	0.00057
602.64000	0.09435	0.00050
602.68000	0.09812	0.00038
602.72000	0.09430	0.00046
602.76000	0.09415	0.00025
602.80000	0.09618	0.00034
602.84000	0.09598	0.00039
602.88000	0.09608	0.00050
602.92000	0.09603	0.00036
602.96000	0.09313	0.00047
603.00000	0.09603	0.00042
603.04000	0.10341	0.00047
603.08000	0.10336	0.00034
603.12000	0.09985	0.00034
603.16000	0.09231	0.00038
603.20000	0.09318	0.00034
603.24000	0.09797	0.00042
603.28000	0.09715	0.00040
603.32000	0.09308	0.00056
603.36000	0.09298	0.00036
603.40000	0.09511	0.00065
603.44000	0.09338	0.00036
603.48000	0.09725	0.00052
603.52000	0.09328	0.00051
603.56000	0.09557	0.00050
603.60000	0.10092	0.00033
603.64000	0.10056	0.00032
603.68000	0.09725	0.00047
603.72000	0.09685	0.00023
603.76000	0.10178	0.00034
603.80000	0.09527	0.00047
603.84000	0.09511	0.00040
603.88000	0.09786	0.00046
603.92000	0.09405	0.00031
603.96000	0.09445	0.00032
604.00000	0.10071	0.00033
604.04000	0.09236	0.00042
604.08000	0.09695	0.00036
604.12000	0.10010	0.00042
604.16000	0.09898	0.00042
604.20000	0.10173	0.00040
604.24000	0.10194	0.00046
604.28000	0.10087	0.00034
604.32000	0.10453	0.00031
604.36000	0.09980	0.00025
604.40000	0.10071	0.00046
604.44000	0.09909	0.00027
604.48000	0.10270	0.00059
604.52000	0.09914	0.00055
604.56000	0.09903	0.00032
604.60000	0.10474	0.00020
604.64000	0.10102	0.00036
604.68000	0.09430	0.00033
604.72000	0.09506	0.00044
604.76000	0.10189	0.00041
604.80000	0.10071	0.00033
604.84000	0.10097	0.00038
604.88000	0.09420	0.00057
604.92000	0.09165	0.00025
604.96000	0.09781	0.00047
605.00000	0.10082	0.00025
605.04000	0.09420	0.00041
605.08000	0.09893	0.00044
605.12000	0.09909	0.00036
605.16000	0.09445	0.00032
605.20000	0.09995	0.00038
605.24000	0.09522	0.00034
605.28000	0.09883	0.00047
605.32000	0.09532	0.00046
605.36000	0.09898	0.00036
605.40000	0.09343	0.00039
605.44000	0.09338	0.00036
605.48000	0.09608	0.00044
605.52000	0.09501	0.00027
605.56000	0.09511	0.00040
605.60000	0.08946	0.00055
605.64000	0.09817	0.00033
605.68000	0.09511	0.00051
605.72000	0.09517	0.00052
605.76000	0.09226	0.00046
605.80000	0.09023	0.00040
605.84000	0.08844	0.00044
605.88000	0.09038	0.00032
605.92000	0.08946	0.00050
605.96000	0.09328	0.00040
606.00000	0.09328	0.00040
606.04000	0.09598	0.00032
606.08000	0.09807	0.00036
606.12000	0.09236	0.00036
606.16000	0.09613	0.00046
606.20000	0.09430	0.00046
606.24000	0.09618	0.00034
606.28000	0.09537	0.00050
606.32000	0.09506	0.00044
606.36000	0.09430	0.00046
606.40000	0.09720	0.00041
606.44000	0.09807	0.00053
606.48000	0.09598	0.00056
606.52000	0.09730	0.00052
606.56000	0.10087	0.00041
606.60000	0.10097	0.00050
606.64000	0.09593	0.00058
606.68000	0.09914	0.00064
606.72000	0.09807	0.00027
606.76000	0.10010	0.00036
606.80000	0.10245	0.00079
606.84000	0.10667	0.00039
606.88000	0.10626	0.00020
606.92000	0.10672	0.00027
606.96000	0.09730	0.00047
607.00000	0.10285	0.00041
607.04000	0.10744	0.00061
607.08000	0.10637	0.00041
607.12000	0.10565	0.00051
607.16000	0.10642	0.00052
607.20000	0.10632	0.00023
607.24000	0.10912	0.00038
607.28000	0.11971	0.00034
607.32000	0.11512	0.00057
607.36000	0.11528	0.00066
607.40000	0.12368	0.00034
607.44000	0.11680	0.00048
607.48000	0.11696	0.00038
607.52000	0.11594	0.00050
607.56000	0.11670	0.00040
607.60000	0.11986	0.00027
607.64000	0.11772	0.00051
607.68000	0.11573	0.00055
607.72000	0.11971	0.00025
607.76000	0.11696	0.00044
607.80000	0.11701	0.00033
607.84000	0.11675	0.00050
607.88000	0.12653	0.00039
607.92000	0.11497	0.00040
607.96000	0.11594	0.00038
608.00000	0.11288	0.00044
608.04000	0.11293	0.00040
608.08000	0.11329	0.00023
608.12000	0.11202	0.00025
608.16000	0.11242	0.00040
608.20000	0.10927	0.00036
608.24000	0.10759	0.00038
608.28000	0.11100	0.00041
608.32000	0.10484	0.00034
608.36000	0.10469	0.00053
608.40000	0.10372	0.00038
608.44000	0.10189	0.00041
608.48000	0.10357	0.00048
608.52000	0.09990	0.00023
608.56000	0.09807	0.00066
608.60000	0.10194	0.00033
608.64000	0.09995	0.00031
608.68000	0.10021	0.00051
608.72000	0.09445	0.00046
608.76000	0.09802	1.38778E-17
608.80000	0.10000	0.00042
608.84000	0.09425	0.00052
608.88000	0.09695	0.00053
608.92000	0.10082	0.00034
608.96000	0.10087	0.00034
609.00000	0.09909	0.00027
609.04000	0.09715	0.00033
609.08000	0.09517	0.00041
609.12000	0.10504	0.00044
609.16000	0.10178	0.00052
609.20000	0.09990	0.00046
609.24000	0.09629	0.00034
609.28000	0.09618	0.00034
609.32000	0.09802	0.00032
609.36000	0.09623	0.00041
609.40000	0.10097	0.00044
609.44000	0.09812	0.00038
609.48000	0.09903	0.00046
609.52000	0.09216	0.00025
609.56000	0.09236	0.00042
609.60000	0.09802	0.00039
609.64000	0.09776	0.00057
609.68000	0.09898	0.00036
609.72000	0.10204	0.00053
609.76000	0.09598	0.00046
609.80000	0.09501	0.00042
609.84000	0.09532	0.00056
609.88000	0.09618	0.00025
609.92000	0.09878	0.00034
609.96000	0.09608	0.00020
610.00000	0.09618	0.00047
610.04000	0.09313	0.00047
610.08000	0.09623	0.00034
610.12000	0.08773	0.00031
610.16000	0.08763	0.00025
610.20000	0.09145	0.00042
610.24000	0.09226	0.00033
610.28000	0.09135	0.00027
610.32000	0.09236	0.00027
610.36000	0.09430	0.00023
610.40000	0.09715	0.00040
610.44000	0.09700	0.00046
610.48000	0.09542	0.00053
610.52000	0.09674	0.00041
610.56000	0.09603	0.00036
610.60000	0.09695	0.00027
610.64000	0.09690	0.00038
610.68000	0.10061	0.00027
610.72000	0.09588	0.00031
610.76000	0.09608	0.00055
610.80000	0.10204	0.00036
610.84000	0.09786	0.00033
610.88000	0.10362	0.00032
610.92000	0.10835	0.00033
610.96000	0.10204	0.00027
611.00000	0.10540	0.00047
611.04000	0.10565	0.00046
611.08000	0.09715	0.00033
611.12000	0.10285	0.00034
611.16000	0.10051	0.00027
611.20000	0.10453	0.00038
611.24000	0.10061	0.00027
611.28000	0.10387	0.00034
611.32000	0.10382	0.00041
611.36000	0.10265	0.00015
611.40000	0.10565	0.00039
611.44000	0.10458	0.00015
611.48000	0.10469	0.00036
611.52000	0.10372	0.00044
611.56000	0.10382	0.00047
611.60000	0.10540	0.00041
611.64000	0.10555	0.00038
611.68000	0.11298	0.00041
611.72000	0.10749	0.00041
611.76000	0.10525	0.00050
611.80000	0.10484	0.00052
611.84000	0.10087	0.00034
611.88000	0.10362	0.00056
611.92000	0.10382	0.00052
611.96000	0.09909	0.00058
612.00000	0.09425	0.00047
612.04000	0.09985	0.00025
612.08000	0.10346	0.00023
612.12000	0.10275	0.00040
612.16000	0.09883	0.00041
612.20000	0.09903	0.00051
612.24000	0.09878	0.00052
612.28000	0.10469	0.00048
612.32000	0.10010	0.00042
612.36000	0.09313	0.00041
612.40000	0.09613	0.00040
612.44000	0.09822	0.00047
612.48000	0.09068	0.00047
612.52000	0.09043	0.00036
612.56000	0.08911	0.00041
612.60000	0.09308	0.00040
612.64000	0.09389	0.00042
612.68000	0.09623	0.00041
612.72000	0.09965	0.00038
612.76000	0.09598	0.00032
612.80000	0.09588	0.00044
612.84000	0.09435	0.00020
612.88000	0.09812	0.00044
612.92000	0.09735	0.00040
612.96000	0.09995	0.00038
613.00000	0.09150	0.00044
613.04000	0.09608	0.00038
613.08000	0.09420	0.00047
613.12000	0.09420	0.00034
613.16000	0.09705	0.00036
613.20000	0.09135	0.00027
613.24000	0.09506	0.00050
613.28000	0.09593	0.00042
613.32000	0.09802	0.00056
613.36000	0.09231	0.00038
613.40000	0.09211	0.00034
613.44000	0.10061	0.00036
613.48000	0.09186	0.00027
613.52000	0.09338	0.00036
613.56000	0.09883	0.00041
613.60000	0.09425	0.00052
613.64000	0.09975	0.00057
613.68000	0.09975	0.00057
613.72000	0.10092	0.00056
613.76000	0.09685	0.00033
613.80000	0.09893	0.00044
613.84000	0.09623	0.00034
613.88000	0.09328	0.00051
613.92000	0.09170	0.00025
613.96000	0.10178	0.00041
614.00000	0.10189	0.00047
614.04000	0.09425	0.00025
614.08000	0.09221	0.00034
614.12000	0.09664	0.00023
614.16000	0.09817	0.00033
614.20000	0.09593	0.00027
614.24000	0.09909	0.00036
614.28000	0.09914	0.00044
614.32000	0.09226	0.00040
614.36000	0.09730	0.00047
614.40000	0.09730	0.00041
614.44000	0.09338	0.00042
614.48000	0.10443	0.00041
614.52000	0.09506	0.00050
614.56000	0.09552	0.00048
614.60000	0.10005	0.00051
614.64000	0.10280	0.00034
614.68000	0.09603	0.00015
614.72000	0.09506	0.00038
614.76000	0.09797	0.00015
614.80000	0.09695	0.00027
614.84000	0.09338	0.00048
614.88000	0.09333	0.00038
614.92000	0.09501	0.00036
614.96000	0.09537	0.00031
615.00000	0.09522	0.00047
615.04000	0.09802	0.00056
615.08000	0.09343	0.00046
615.12000	0.09114	0.00052
615.16000	0.09140	0.00039
615.20000	0.09603	0.00042
615.24000	0.09517	0.00061
615.28000	0.09613	0.00046
615.32000	0.09216	0.00047
615.36000	0.09063	0.00034
615.40000	0.09909	0.00053
615.44000	0.09710	0.00044
615.48000	0.09710	0.00031
615.52000	0.09420	0.00025
615.56000	0.09629	0.00041
615.60000	0.09313	0.00047
615.64000	0.09425	0.00025
615.68000	0.09247	0.00036
615.72000	0.09226	0.00040
615.76000	0.09242	0.00039
615.80000	0.09695	0.00036
615.84000	0.08941	0.00042
615.88000	0.09522	0.00041
615.92000	0.09730	0.00034
615.96000	0.09338	0.00053
616.00000	0.09522	0.00041
616.04000	0.09527	0.00052
616.08000	0.09435	0.00059
616.12000	0.09435	0.00038
616.16000	0.09812	0.00020
616.20000	0.09216	0.00041
616.24000	0.10066	0.00031
616.28000	0.10071	0.00033
616.32000	0.09629	0.00025
616.36000	0.09613	0.00060
616.40000	0.09959	0.00053
616.44000	0.09511	0.00033
616.48000	0.09140	0.00032
616.52000	0.09333	0.00038
616.56000	0.09629	0.00047
616.60000	0.08768	0.00023
616.64000	0.08748	0.00040
616.68000	0.09868	0.00023
616.72000	0.09634	0.00033
616.76000	0.10367	0.00053
616.80000	0.09802	0.00060
616.84000	0.09898	0.00027
616.88000	0.10199	0.00020
616.92000	0.10143	0.00060
616.96000	0.09634	0.00033
617.00000	0.09802	0.00051
617.04000	0.09822	0.00034
617.08000	0.09140	0.00039
617.12000	0.09812	0.00038
617.16000	0.10087	0.00034
617.20000	0.10453	0.00038
617.24000	0.10453	0.00038
617.28000	0.10372	0.00044
617.32000	0.10530	0.00040
617.36000	0.10382	0.00047
617.40000	0.10998	0.00061
617.44000	0.10183	0.00025
617.48000	0.10637	0.00041
617.52000	0.10626	0.00031
617.56000	0.10555	0.00059
617.60000	0.11976	0.00033
617.64000	0.12072	0.00041
617.68000	0.12638	0.00051
617.72000	0.11960	0.00052
617.76000	0.12785	0.00057
617.80000	0.12526	0.00047
617.84000	0.12541	0.00038
617.88000	0.13101	0.00038
617.92000	0.13854	0.00052
617.96000	0.14598	0.00038
618.00000	0.14119	0.00044
618.04000	0.13666	0.00015
618.08000	0.15652	0.00036
618.12000	0.15652	0.00042
618.16000	0.15479	0.00034
618.20000	0.16054	0.00050
618.24000	0.16415	0.00042
618.28000	0.16191	0.00041
618.32000	0.16135	0.00047
618.36000	0.15682	0.00025
618.40000	0.15626	0.00047
618.44000	0.15555	0.00076
618.48000	0.15937	0.00041
618.52000	0.16986	0.00042
618.56000	0.16517	0.00036
618.60000	0.16410	0.00038
618.64000	0.16212	0.00027
618.68000	0.16420	0.00039
618.72000	0.16405	0.00046
618.76000	0.15555	0.00039
618.80000	0.14812	0.00034
618.84000	0.14603	0.00040
618.88000	0.13778	0.00042
618.92000	0.14414	0.00034
618.96000	0.13305	0.00031
619.00000	0.13289	0.00034
619.04000	0.13106	0.00027
619.08000	0.13035	0.00025
619.12000	0.12867	0.00044
619.16000	0.11884	0.00048
619.20000	0.11110	0.00046
619.24000	0.10927	0.00036
619.28000	0.09980	0.00052
619.32000	0.09985	0.00034
619.36000	0.10555	0.00055
619.40000	0.10280	0.00041
619.44000	0.10362	0.00039
619.48000	0.09608	0.00059
619.52000	0.09995	0.00031
619.56000	0.09629	0.00041
619.60000	0.09639	0.00038
619.64000	0.10087	0.00034
619.68000	0.09618	0.00025
619.72000	0.09679	0.00025
619.76000	0.10749	0.00057
619.80000	0.09491	0.00027
619.84000	0.10092	0.00023
619.88000	0.10087	0.00025
619.92000	0.10005	0.00023
619.96000	0.09608	0.00038
620.00000	0.10173	0.00046
620.04000	0.10290	0.00041
620.08000	0.09700	0.00046
620.12000	0.09791	0.00044
620.16000	0.09909	0.00042
620.20000	0.09878	0.00047
620.24000	0.10550	0.00056
620.28000	0.10438	0.00025
620.32000	0.10173	0.00040
620.36000	0.10158	0.00046
620.40000	0.09990	0.00040
620.44000	0.10560	0.00036
620.48000	0.10509	0.00042
620.52000	0.10000	0.00027
620.56000	0.10209	0.00039
620.60000	0.10112	0.00048
620.64000	0.10362	0.00046
620.68000	0.10576	0.00031
620.72000	0.10097	0.00020
620.76000	0.10077	0.00047
620.80000	0.10560	0.00036
620.84000	0.10372	0.00044
620.88000	0.09990	0.00040
620.92000	0.10153	0.00053
620.96000	0.10535	0.00034
621.00000	0.11029	0.00036
621.04000	0.11298	0.00047
621.08000	0.11319	0.00031
621.12000	0.11064	0.00050
621.16000	0.10856	0.00046
621.20000	0.10922	0.00039
621.24000	0.10194	0.00033
621.28000	0.11029	0.00042
621.32000	0.11008	0.00033
621.36000	0.11003	0.00052
621.40000	0.11024	0.00039
621.44000	0.11008	0.00040
621.48000	0.11482	0.00051
621.52000	0.12133	0.00038
621.56000	0.11965	0.00034
621.60000	0.12083	0.00038
621.64000	0.11920	0.00057
621.68000	0.11853	0.00033
621.72000	0.11869	0.00025
621.76000	0.12744	0.00055
621.80000	0.11879	0.00050
621.84000	0.12149	0.00036
621.88000	0.13269	0.00027
621.92000	0.13493	0.00034
621.96000	0.13478	0.00038
622.00000	0.14348	0.00046
622.04000	0.13753	0.00025
622.08000	0.15102	0.00042
622.12000	0.15188	0.00050
622.16000	0.15367	0.00060
622.20000	0.15952	0.00020
622.24000	0.15952	0.00031
622.28000	0.15647	0.00044
622.32000	0.15662	0.00036
622.36000	0.15830	0.00025
622.40000	0.16314	0.00036
622.44000	0.15270	0.00034
622.48000	0.16380	0.00044
622.52000	0.15937	0.00025
622.56000	0.15957	0.00027
622.60000	0.16578	0.00036
622.64000	0.16863	0.00056
622.68000	0.15193	0.00042
622.72000	0.14974	0.00041
622.76000	0.15224	0.00047
622.80000	0.14700	0.00031
622.84000	0.14715	0.00034
622.88000	0.14328	0.00027
622.92000	0.14964	0.00041
622.96000	0.13763	0.00020
623.00000	0.13483	0.00023
623.04000	0.13116	0.00036
623.08000	0.12816	0.00055
623.12000	0.12816	0.00044
623.16000	0.12332	0.00040
623.20000	0.11212	0.00040
623.24000	0.11772	0.00046
623.28000	0.11405	0.00041
623.32000	0.11309	0.00047
623.36000	0.10962	0.00031
623.40000	0.11589	0.00036
623.44000	0.11599	0.00040
623.48000	0.10754	0.00046
623.52000	0.10275	0.00033
623.56000	0.10341	0.00034
623.60000	0.10453	0.00050
623.64000	0.10189	0.00041
623.68000	0.10102	0.00048
623.72000	0.10071	0.00033
623.76000	0.10071	0.00051
623.80000	0.09705	0.00036
623.84000	0.09807	0.00042
623.88000	0.10178	0.00052
623.92000	0.09878	0.00041
623.96000	0.10194	0.00046
624.00000	0.09812	0.00020
624.04000	0.09791	0.00038
624.08000	0.10082	0.00047
624.12000	0.10000	0.00027
624.16000	0.10071	0.00046
624.20000	0.09990	0.00056
624.24000	0.09715	0.00040
624.28000	0.10377	0.00056
624.32000	0.10346	0.00033
624.36000	0.09995	0.00031
624.40000	0.09914	0.00059
624.44000	0.10173	0.00040
624.48000	0.10107	0.00039
624.52000	0.09517	0.00034
624.56000	0.09730	0.00025
624.60000	0.09700	0.00032
624.64000	0.09909	0.00058
624.68000	0.09328	0.00065
624.72000	0.09333	0.00050
624.76000	0.09995	0.00055
624.80000	0.09720	0.00047
624.84000	0.09797	0.00027
624.88000	0.09690	0.00059
624.92000	0.09730	0.00034
624.96000	0.09517	0.00034
625.00000	0.10102	0.00027
625.04000	0.09135	0.00036
625.08000	0.10005	0.00032
625.12000	0.09919	0.00046
625.16000	0.09898	0.00058
625.20000	0.09919	0.00046
625.24000	0.09893	0.00038
625.28000	0.09491	0.00042
625.32000	0.10097	0.00020
625.36000	0.09700	0.00046
625.40000	0.09506	0.00038
625.44000	0.09883	0.00052
625.48000	0.09888	0.00040
625.52000	0.09802	0.00032
625.56000	0.09802	0.00023
625.60000	0.09623	0.00034
625.64000	0.09410	0.00033
625.68000	0.09898	0.00036
625.72000	0.09257	0.00046
625.76000	0.09211	0.00034
625.80000	0.09206	0.00033
625.84000	0.10092	0.00060
625.88000	0.09420	0.00034
625.92000	0.09720	0.00052
625.96000	0.09995	0.00044
626.00000	0.09603	0.00027
626.04000	0.09318	0.00047
626.08000	0.09313	0.00057
626.12000	0.09501	0.00027
626.16000	0.10372	0.00038
626.20000	0.09812	0.00055
626.24000	0.10010	0.00027
626.28000	0.09644	0.00027
626.32000	0.09776	0.00041
626.36000	0.09415	0.00047
626.40000	0.09405	0.00038
626.44000	0.09323	0.00065
626.48000	0.09389	0.00036
626.52000	0.10377	0.00023
626.56000	0.10168	0.00044
626.60000	0.09150	0.00020
626.64000	0.10087	0.00025
626.68000	0.10087	0.00041
626.72000	0.09903	0.00046
626.76000	0.09705	0.00036
626.80000	0.09903	0.00039
626.84000	0.09939	0.00033
626.88000	0.09807	0.00036
626.92000	0.09995	0.00044
626.96000	0.10010	0.00036
627.00000	0.10183	0.00073
627.04000	0.10443	0.00041
627.08000	0.09924	0.00034
627.12000	0.09903	0.00051
627.16000	0.10178	0.00047
627.20000	0.10071	0.00033
627.24000	0.10097	0.00020
627.28000	0.10077	0.00041
627.32000	0.09812	0.00020
627.36000	0.10102	0.00027
627.40000	0.09919	0.00040
627.44000	0.09807	0.00027
627.48000	0.10637	0.00052
627.52000	0.10586	0.00041
627.56000	0.10545	0.00057
627.60000	0.10733	0.00033
627.64000	0.10581	0.00033
627.68000	0.10438	0.00025
627.72000	0.10657	0.00031
627.76000	0.10540	0.00034
627.80000	0.10840	0.00025
627.84000	0.10922	0.00060
627.88000	0.10922	0.00023
627.92000	0.10738	0.00047
627.96000	0.10825	0.00027
628.00000	0.10820	0.00032
628.04000	0.10565	0.00039
628.08000	0.11309	0.00041
628.12000	0.10830	0.00031
628.16000	0.10835	0.00033
628.20000	0.11589	0.00042
628.24000	0.11680	0.00042
628.28000	0.11400	0.00047
628.32000	0.11416	0.00051
628.36000	0.12266	0.00034
628.40000	0.11594	0.00031
628.44000	0.11609	0.00034
628.48000	0.11696	0.00031
628.52000	0.11680	0.00027
628.56000	0.11981	0.00031
628.60000	0.11874	0.00023
628.64000	0.12363	0.00033
628.68000	0.12083	0.00050
628.72000	0.11273	0.00027
628.76000	0.11298	0.00034
628.80000	0.11492	0.00031
628.84000	0.11472	0.00044
628.88000	0.11018	0.00027
628.92000	0.11691	0.00042
628.96000	0.11507	0.00047
629.00000	0.11095	0.00034
629.04000	0.11105	0.00041
629.08000	0.11237	0.00038
629.12000	0.11110	0.00040
629.16000	0.11008	0.00040
629.20000	0.10224	0.00033
629.24000	0.11029	0.00048
629.28000	0.11115	0.00050
629.32000	0.11120	0.00036
629.36000	0.10367	0.00036
629.40000	0.09914	0.00055
629.44000	0.10362	0.00023
629.48000	0.10362	0.00060
629.52000	0.10066	0.00038
629.56000	0.09909	0.00036
629.60000	0.10077	0.00041
629.64000	0.10082	0.00047
629.68000	0.09511	0.00046
629.72000	0.09914	0.00038
629.76000	0.09562	0.00040
629.80000	0.09802	0.00032
629.84000	0.09058	0.00047
629.88000	0.09135	0.00048
629.92000	0.09140	0.00051
629.96000	0.08819	0.00040
630.00000	0.09629	0.00025
630.04000	0.09160	0.00034
630.08000	0.09033	0.00048
630.12000	0.09430	0.00033
630.16000	0.09298	0.00048
630.20000	0.09552	0.00053
630.24000	0.09501	0.00048
630.28000	0.09160	0.00052
630.32000	0.08778	0.00048
630.36000	0.09242	0.00051
630.40000	0.09425	0.00052
630.44000	0.09333	0.00044
630.48000	0.09547	0.00032
630.52000	0.09527	0.00034
630.56000	0.09221	0.00041
630.60000	0.09216	0.00025
630.64000	0.08926	0.00055
630.68000	0.09328	0.00056
630.72000	0.09231	0.00038
630.76000	0.09226	0.00046
630.80000	0.09221	0.00034
630.84000	0.09318	0.00025
630.88000	0.09527	0.00047
630.92000	0.09140	0.00051
630.96000	0.09527	0.00047
631.00000	0.09527	0.00034
631.04000	0.09705	0.00042
631.08000	0.08967	0.00034
631.12000	0.08951	0.00046
631.16000	0.09160	0.00041
631.20000	0.09898	0.00036
631.24000	0.10173	0.00046
631.28000	0.10397	0.00033
631.32000	0.10632	0.00033
631.36000	0.11523	0.00038
631.40000	0.11502	0.00052
631.44000	0.12169	0.00052
631.48000	0.11884	0.00042
631.52000	0.12062	0.00025
631.56000	0.12500	0.00051
631.60000	0.13574	0.00036
631.64000	0.13936	0.00031
631.68000	0.13946	0.00034
631.72000	0.14511	0.00034
631.76000	0.14226	0.00027
631.80000	0.14893	0.00051
631.84000	0.15341	0.00038
631.88000	0.15672	0.00040
631.92000	0.15662	0.00036
631.96000	0.16130	0.00040
632.00000	0.16125	0.00050
632.04000	0.16599	0.00034
632.08000	0.16695	0.00061
632.12000	0.16400	0.00052
632.16000	0.17347	0.00031
632.20000	0.17429	0.00031
632.24000	0.18284	0.00034
632.28000	0.18258	0.00048
632.32000	0.16960	0.00034
632.36000	0.16772	0.00042
632.40000	0.16298	0.00057
632.44000	0.16487	0.00046
632.48000	0.16792	0.00040
632.52000	0.16802	0.00052
632.56000	0.16604	0.00057
632.60000	0.16604	0.00041
632.64000	0.16426	0.00042
632.68000	0.15718	0.00031
632.72000	0.15341	0.00038
632.76000	0.15652	0.00027
632.80000	0.15071	0.00047
632.84000	0.14053	0.00052
632.88000	0.14027	0.00046
632.92000	0.14109	0.00047
632.96000	0.13218	0.00027
633.00000	0.13508	0.00044
633.04000	0.13396	0.00041
633.08000	0.13305	0.00031
633.12000	0.11594	0.00044
633.16000	0.11594	0.00038
633.20000	0.12057	0.00046
633.24000	0.11869	0.00052
633.28000	0.12439	0.00044
633.32000	0.11971	0.00047
633.36000	0.11691	0.00036
633.40000	0.11008	0.00046
633.44000	0.11024	0.00039
633.48000	0.11018	0.00048
633.52000	0.10611	0.00027
633.56000	0.10540	0.00034
633.60000	0.10290	0.00041
633.64000	0.10010	0.00036
633.68000	0.09517	0.00047
633.72000	0.09323	0.00034
633.76000	0.09328	0.00040
633.80000	0.09771	0.00034
633.84000	0.09511	0.00051
633.88000	0.09618	0.00034
633.92000	0.09420	0.00047
633.96000	0.09328	0.00040
634.00000	0.09318	0.00041
634.04000	0.08768	0.00033
634.08000	0.08794	0.00031
634.12000	0.08763	0.00025
634.16000	0.08962	0.00041
634.20000	0.09221	0.00025
634.24000	0.10021	0.00051
634.28000	0.09318	0.00034
634.32000	0.09226	0.00033
634.36000	0.09221	0.00025
634.40000	0.09695	0.00036
634.44000	0.09124	0.00056
634.48000	0.09043	0.00048
634.52000	0.09211	0.00041
634.56000	0.08941	0.00036
634.60000	0.09440	0.00036
634.64000	0.09415	0.00052
634.68000	0.09364	0.00057
634.72000	0.09909	0.00042
634.76000	0.09318	0.00052
634.80000	0.09410	0.00023
634.84000	0.09496	0.00039
634.88000	0.09613	0.00033
634.92000	0.09410	0.00040
634.96000	0.09440	0.00015
635.00000	0.09420	0.00041
635.04000	0.09231	0.00050
635.08000	0.10224	0.00040
635.12000	0.09247	0.00027
635.16000	0.08855	0.00034
635.20000	0.09410	0.00033
635.24000	0.09450	0.00058
635.28000	0.09522	0.00041
635.32000	0.09415	0.00034
635.36000	0.09191	0.00032
635.40000	0.09145	0.00042
635.44000	0.09053	0.00033
635.48000	0.09623	0.00034
635.52000	0.09613	0.00046
635.56000	0.09430	0.00040
635.60000	0.09338	0.00042
635.64000	0.09359	0.00040
635.68000	0.09140	0.00039
635.72000	0.09812	0.00031
635.76000	0.09430	0.00033
635.80000	0.09588	0.00038
635.84000	0.09598	0.00039
635.88000	0.09231	0.00038
635.92000	0.09410	0.00033
635.96000	0.09496	0.00056
636.00000	0.09791	0.00044
636.04000	0.09221	0.00041
636.08000	0.08931	0.00053
636.12000	0.08941	0.00048
636.16000	0.08885	0.00056
636.20000	0.09435	0.00020
636.24000	0.09542	0.00027
636.28000	0.09522	0.00034
636.32000	0.08758	0.00034
636.36000	0.09333	0.00044
636.40000	0.09226	0.00051
636.44000	0.09221	0.00041
636.48000	0.09028	0.00050
636.52000	0.09629	0.00041
636.56000	0.08865	0.00034
636.60000	0.09425	0.00047
636.64000	0.09343	0.00039
636.68000	0.09028	0.00038
636.72000	0.09068	0.00041
636.76000	0.09359	0.00060
636.80000	0.08860	0.00047
636.84000	0.09394	0.00032
636.88000	0.09318	0.00069
636.92000	0.09043	0.00048
636.96000	0.09883	0.00041
637.00000	0.09893	0.00050
637.04000	0.09914	0.00044
637.08000	0.09797	0.00027
637.12000	0.09313	0.00025
637.16000	0.09527	0.00041
637.20000	0.09221	0.00041
637.24000	0.09221	0.00034
637.28000	0.08860	0.00052
637.32000	0.08850	0.00033
637.36000	0.09791	0.00020
637.40000	0.09735	0.00040
637.44000	0.09236	0.00053
637.48000	0.09511	0.00056
637.52000	0.09216	0.00034
637.56000	0.09338	0.00042
637.60000	0.09338	0.00027
637.64000	0.09435	0.00038
637.68000	0.09532	0.00046
637.72000	0.09140	0.00039
637.76000	0.09725	0.00047
637.80000	0.09323	0.00052
637.84000	0.09618	0.00052
637.88000	0.09613	0.00023
637.92000	0.08692	0.00020
637.96000	0.09028	0.00044
638.00000	0.09236	0.00058
638.04000	0.09420	0.00041
638.08000	0.09893	0.00050
638.12000	0.09175	0.00040
638.16000	0.09435	0.00031
638.20000	0.09430	0.00023
638.24000	0.09435	0.00031
638.28000	0.09613	0.00033
638.32000	0.09629	0.00025
638.36000	0.09603	0.00048
638.40000	0.09338	0.00042
638.44000	0.09603	0.00042
638.48000	0.09603	0.00036
638.52000	0.09196	0.00036
638.56000	0.09440	0.00058
638.60000	0.08936	0.00039
638.64000	0.09898	0.00027
638.68000	0.09338	0.00048
638.72000	0.09053	0.00033
638.76000	0.09791	0.00031
638.80000	0.09797	0.00036
638.84000	0.09593	0.00048
638.88000	0.09410	0.00051
638.92000	0.09914	0.00055
638.96000	0.09354	0.00055
639.00000	0.09888	0.00046
639.04000	0.10173	0.00046
639.08000	0.10189	0.00041
639.12000	0.09440	0.00036
639.16000	0.09511	0.00046
639.20000	0.10270	0.00038
639.24000	0.09797	0.00036
639.28000	0.10000	0.00027
639.32000	0.09909	0.00036
639.36000	0.09914	0.00050
639.40000	0.10464	0.00039
639.44000	0.10194	0.00033
639.48000	0.09990	0.00046
639.52000	0.09206	0.00033
639.56000	0.09975	0.00034
639.60000	0.09781	0.00034
639.64000	0.09827	0.00057
639.68000	0.09827	0.00034
639.72000	0.10061	0.00027
639.76000	0.10270	0.00038
639.80000	0.10071	0.00040
639.84000	0.10759	0.00055
639.88000	0.10183	0.00041
639.92000	0.10250	0.00031
639.96000	0.10275	0.00051
