Raman-Spectrum _CHBr3 _aspol001.dat
27/09/2021
15:44:59
_CHBr3
_aspol0 Temp: NON
X in nm	Y Signal 	Error Signal				
625.04000	0.12439	0.00059
625.08000	0.13040	0.00034
625.12000	0.12912	0.00048
625.16000	0.12836	0.00047
625.20000	0.12826	0.00034
625.24000	0.12831	0.00047
625.28000	0.12383	0.00033
625.32000	0.13228	0.00033
625.36000	0.13564	0.00042
625.40000	0.13854	0.00041
625.44000	0.13121	0.00044
625.48000	0.13101	0.00050
625.52000	0.13366	0.00046
625.56000	0.14506	0.00041
625.60000	0.13956	0.00047
625.64000	0.15010	0.00056
625.68000	0.15529	0.00047
625.72000	0.16487	0.00056
625.76000	0.16802	0.00047
625.80000	0.16777	0.00051
625.84000	0.17632	0.00020
625.88000	0.18869	0.00027
625.92000	0.18834	0.00041
625.96000	0.20550	0.00048
626.00000	0.20544	0.00046
626.04000	0.22041	0.00025
626.08000	0.22062	0.00038
626.12000	0.23553	0.00027
626.16000	0.24241	0.00041
626.20000	0.25010	0.00051
626.24000	0.25269	0.00031
626.28000	0.26781	0.00047
626.32000	0.27433	0.00046
626.36000	0.27423	0.00053
626.40000	0.28166	0.00040
626.44000	0.27545	0.00047
626.48000	0.28360	0.00034
626.52000	0.28660	0.00061
626.56000	0.29796	0.00051
626.60000	0.28635	0.00036
626.64000	0.29042	0.00036
626.68000	0.29022	0.00047
626.72000	0.28563	0.00034
626.76000	0.29969	0.00036
626.80000	0.28095	0.00046
626.84000	0.27250	0.00040
626.88000	0.26955	0.00042
626.92000	0.26685	0.00041
626.96000	0.26690	0.00033
627.00000	0.24775	0.00027
627.04000	0.24500	0.00046
627.08000	0.24119	0.00031
627.12000	0.22454	0.00047
627.16000	0.21303	0.00053
627.20000	0.19893	0.00038
627.24000	0.18869	0.00036
627.28000	0.18869	0.00036
627.32000	0.18864	0.00039
627.36000	0.16787	0.00044
627.40000	0.16212	0.00048
627.44000	0.15840	0.00041
627.48000	0.15275	0.00047
627.52000	0.15086	0.00055
627.56000	0.15076	0.00041
627.60000	0.14409	0.00034
627.64000	0.14114	0.00033
627.68000	0.13778	0.00058
627.72000	0.13747	0.00025
627.76000	0.13859	0.00023
627.80000	0.13559	0.00031
627.84000	0.13630	0.00044
627.88000	0.13391	0.00047
627.92000	0.13758	0.00046
627.96000	0.13498	0.00025
628.00000	0.13294	0.00041
628.04000	0.13457	0.00044
628.08000	0.14338	0.00027
628.12000	0.13289	0.00041
628.16000	0.13299	0.00056
628.20000	0.13381	0.00046
628.24000	0.13396	0.00034
628.28000	0.13294	0.00047
628.32000	0.12454	0.00042
628.36000	0.13386	0.00047
628.40000	0.12841	0.00056
628.44000	0.12826	0.00047
628.48000	0.13574	0.00036
628.52000	0.12526	0.00025
628.56000	0.13381	0.00040
628.60000	0.12907	0.00032
628.64000	0.12918	0.00031
628.68000	0.13126	0.00056
628.72000	0.13106	0.00053
628.76000	0.12907	0.00039
628.80000	0.12342	0.00062
628.84000	0.12159	0.00046
628.88000	0.12251	0.00048
628.92000	0.12352	0.00048
628.96000	0.12169	0.00034
629.00000	0.11884	0.00042
629.04000	0.11874	0.00023
629.08000	0.12638	0.00040
629.12000	0.11584	0.00046
629.16000	0.11298	0.00041
629.20000	0.11864	0.00034
629.24000	0.12083	0.00044
629.28000	0.11986	0.00036
629.32000	0.11981	0.00038
629.36000	0.11288	0.00050
629.40000	0.11090	0.00023
629.44000	0.11431	1.38778E-17
629.48000	0.11293	0.00046
629.52000	0.10932	0.00050
629.56000	0.10362	0.00039
629.60000	0.10937	0.00046
629.64000	0.10896	0.00041
629.68000	0.10744	0.00041
629.72000	0.10306	0.00053
629.76000	0.11339	0.00020
629.80000	0.11288	0.00038
629.84000	0.11512	0.00047
629.88000	0.10464	0.00023
629.92000	0.10474	0.00020
629.96000	0.10520	0.00062
630.00000	0.10494	0.00034
630.04000	0.10830	0.00020
630.08000	0.10535	0.00047
630.12000	0.11018	0.00027
630.16000	0.11018	0.00058
630.20000	0.11013	0.00044
630.24000	0.11024	0.00039
630.28000	0.10464	0.00032
630.32000	0.10163	0.00036
630.36000	0.11110	0.00033
630.40000	0.10642	0.00034
630.44000	0.10652	0.00033
630.48000	0.09990	0.00046
630.52000	0.09995	0.00031
630.56000	0.11212	0.00033
630.60000	0.10820	0.00039
630.64000	0.10357	0.00048
630.68000	0.10632	0.00023
630.72000	0.10453	0.00038
630.76000	0.10010	0.00042
630.80000	0.10005	0.00039
630.84000	0.09898	0.00048
630.88000	0.10469	0.00027
630.92000	0.10840	0.00025
630.96000	0.10754	0.00033
631.00000	0.10560	0.00058
631.04000	0.10199	0.00044
631.08000	0.10178	0.00057
631.12000	0.10112	0.00036
631.16000	0.10723	0.00048
631.20000	0.10657	0.00031
631.24000	0.10988	0.00033
631.28000	0.10657	0.00031
631.32000	0.11039	0.00023
631.36000	0.10932	0.00038
631.40000	0.10932	0.00071
631.44000	0.10759	0.00044
631.48000	0.11095	0.00041
631.52000	0.11034	0.00050
631.56000	0.11222	0.00027
631.60000	0.12072	0.00041
631.64000	0.10927	0.00036
631.68000	0.10912	0.00038
631.72000	0.11227	0.00056
631.76000	0.10723	0.00048
631.80000	0.12088	0.00027
631.84000	0.11797	0.00044
631.88000	0.11614	0.00041
631.92000	0.12358	0.00059
631.96000	0.11502	0.00052
632.00000	0.11502	0.00034
632.04000	0.12470	0.00041
632.08000	0.11309	0.00041
632.12000	0.12261	0.00040
632.16000	0.12449	0.00051
632.20000	0.12352	0.00042
632.24000	0.12419	0.00041
632.28000	0.12439	0.00044
632.32000	0.12464	0.00023
632.36000	0.13045	0.00040
632.40000	0.12907	0.00032
632.44000	0.12582	0.00057
632.48000	0.12918	0.00050
632.52000	0.12856	0.00032
632.56000	0.12836	0.00041
632.60000	0.12439	0.00059
632.64000	0.13299	0.00051
632.68000	0.12551	0.00032
632.72000	0.12235	0.00020
632.76000	0.12434	0.00033
632.80000	0.12261	0.00046
632.84000	0.12429	0.00034
632.88000	0.12470	0.00025
632.92000	0.12118	0.00034
632.96000	0.11696	0.00031
633.00000	0.11889	0.00051
633.04000	0.12149	0.00042
633.08000	0.11517	0.00046
633.12000	0.12062	0.00034
633.16000	0.12047	0.00027
633.20000	0.11212	0.00033
633.24000	0.11609	0.00052
633.28000	0.11848	0.00044
633.32000	0.11090	0.00040
633.36000	0.11222	0.00027
633.40000	0.11797	0.00055
633.44000	0.11675	0.00020
633.48000	0.11675	0.00050
633.52000	0.10550	0.00051
633.56000	0.11110	0.00040
633.60000	0.10530	0.00046
633.64000	0.10469	0.00048
633.68000	0.10555	0.00038
633.72000	0.10906	0.00040
633.76000	0.10917	0.00036
633.80000	0.10733	0.00046
633.84000	0.09980	0.00041
633.88000	0.10652	0.00033
633.92000	0.10626	0.00020
633.96000	0.10194	0.00040
634.00000	0.10209	0.00039
634.04000	0.10178	0.00057
634.08000	0.10265	0.00048
634.12000	0.10642	0.00047
634.16000	0.10749	0.00034
634.20000	0.10754	0.00023
634.24000	0.10387	0.00025
634.28000	0.10453	0.00031
634.32000	0.09781	0.00025
634.36000	0.09807	0.00027
634.40000	0.10922	0.00046
634.44000	0.10189	0.00061
634.48000	0.10199	0.00038
634.52000	0.10927	0.00042
634.56000	0.10464	0.00046
634.60000	0.10173	0.00040
634.64000	0.10194	0.00040
634.68000	0.11039	0.00046
634.72000	0.10178	0.00041
634.76000	0.11212	0.00033
634.80000	0.10535	0.00025
634.84000	0.10275	0.00051
634.88000	0.10932	0.00038
634.92000	0.10922	0.00046
634.96000	0.10464	0.00039
635.00000	0.10474	0.00031
635.04000	0.10545	0.00052
635.08000	0.10362	0.00039
635.12000	0.10922	0.00046
635.16000	0.10647	0.00047
635.20000	0.11105	0.00041
635.24000	0.11105	0.00041
635.28000	0.10820	0.00039
635.32000	0.09888	0.00040
635.36000	0.10464	0.00023
635.40000	0.10728	0.00055
635.44000	0.11237	0.00020
635.48000	0.10382	0.00041
635.52000	0.10382	0.00047
635.56000	0.10189	0.00041
635.60000	0.10570	0.00036
635.64000	0.10565	0.00039
635.68000	0.10372	0.00038
635.72000	0.10540	0.00041
635.76000	0.10825	0.00036
635.80000	0.10657	0.00044
635.84000	0.10642	0.00052
635.88000	0.10560	0.00053
635.92000	0.09985	0.00047
635.96000	0.10372	0.00068
636.00000	0.09949	0.00042
636.04000	0.10723	0.00042
636.08000	0.10545	0.00052
636.12000	0.10576	0.00044
636.16000	0.10183	0.00061
636.20000	0.10362	0.00056
636.24000	0.10387	0.00041
636.28000	0.10352	0.00050
636.32000	0.10825	0.00042
636.36000	0.10545	0.00052
636.40000	0.10545	0.00047
636.44000	0.10749	0.00061
636.48000	0.10647	0.00034
636.52000	0.10392	0.00041
636.56000	0.10861	0.00031
636.60000	0.10367	0.00036
636.64000	0.10285	0.00034
636.68000	0.10265	0.00036
636.72000	0.10270	0.00038
636.76000	0.09807	0.00042
636.80000	0.10769	0.00023
636.84000	0.10382	0.00052
636.88000	0.10540	0.00052
636.92000	0.11298	0.00041
636.96000	0.10555	0.00055
637.00000	0.10545	0.00034
637.04000	0.10672	0.00048
637.08000	0.10464	0.00056
637.12000	0.10194	0.00051
637.16000	0.10662	0.00048
637.20000	0.10306	0.00036
637.24000	0.10458	0.00027
637.28000	0.10443	0.00034
637.32000	0.10759	0.00038
637.36000	0.10275	0.00060
637.40000	0.10555	0.00055
637.44000	0.10458	0.00048
637.48000	0.10183	0.00047
637.52000	0.10377	0.00051
637.56000	0.10474	0.00038
637.60000	0.10469	0.00036
637.64000	0.11115	0.00044
637.68000	0.10479	0.00033
637.72000	0.10453	0.00038
637.76000	0.10830	0.00038
637.80000	0.11013	0.00044
637.84000	0.10642	0.00034
637.88000	0.10632	0.00033
637.92000	0.11507	0.00052
637.96000	0.10840	0.00034
638.00000	0.11482	0.00051
638.04000	0.11680	0.00042
638.08000	0.11487	0.00053
638.12000	0.11492	0.00031
638.16000	0.12271	0.00034
638.20000	0.12251	0.00036
638.24000	0.12663	0.00031
638.28000	0.13401	0.00040
638.32000	0.13681	0.00031
638.36000	0.14308	0.00041
638.40000	0.14389	0.00058
638.44000	0.14857	0.00046
638.48000	0.14903	0.00050
638.52000	0.15641	0.00040
638.56000	0.16339	0.00047
638.60000	0.16980	0.00023
638.64000	0.16772	0.00048
638.68000	0.16700	0.00034
638.72000	0.18126	0.00047
638.76000	0.18116	0.00040
638.80000	0.18284	0.00041
638.84000	0.18004	0.00036
638.88000	0.18874	0.00031
638.92000	0.18839	0.00047
638.96000	0.19144	0.00047
639.00000	0.18284	0.00052
639.04000	0.18666	0.00042
639.08000	0.18661	0.00032
639.12000	0.18141	0.00031
639.16000	0.18854	0.00044
639.20000	0.18284	0.00047
639.24000	0.17805	0.00044
639.28000	0.17826	0.00041
639.32000	0.17989	0.00050
639.36000	0.18009	0.00064
639.40000	0.17352	0.00033
639.44000	0.16904	0.00034
639.48000	0.17591	0.00032
639.52000	0.16380	0.00031
639.56000	0.16390	0.00041
639.60000	0.16324	0.00053
639.64000	0.15657	0.00039
639.68000	0.15662	0.00053
639.72000	0.16196	0.00047
639.76000	0.15845	0.00046
639.80000	0.15193	0.00036
639.84000	0.15086	0.00020
639.88000	0.15173	0.00052
639.92000	0.14598	0.00055
639.96000	0.14603	0.00033
640.00000	0.15290	0.00050
640.04000	0.15092	0.00015
640.08000	0.14705	0.00033
640.12000	0.14521	0.00040
640.16000	0.15173	0.00041
640.20000	0.14333	0.00032
640.24000	0.14353	0.00025
640.28000	0.15361	0.00044
640.32000	0.14822	0.00034
640.36000	0.14985	0.00031
640.40000	0.14801	0.00038
640.44000	0.15341	0.00038
640.48000	0.14618	0.00041
640.52000	0.15280	0.00034
640.56000	0.15280	0.00041
640.60000	0.15178	0.00041
640.64000	0.15621	0.00040
640.68000	0.16125	0.00050
640.72000	0.15764	0.00048
640.76000	0.15820	0.00044
640.80000	0.17179	0.00042
640.84000	0.17138	0.00042
640.88000	0.16930	0.00032
640.92000	0.17250	0.00040
640.96000	0.17754	0.00038
641.00000	0.18197	0.00042
641.04000	0.19603	0.00034
641.08000	0.20173	0.00040
641.12000	0.20147	0.00038
641.16000	0.20753	0.00058
641.20000	0.21196	0.00050
641.24000	0.22606	0.00025
641.28000	0.22825	0.00020
641.32000	0.25264	0.00056
641.36000	0.24704	0.00040
641.40000	0.24791	0.00041
641.44000	0.24791	0.00047
641.48000	0.25733	0.00036
641.52000	0.25733	0.00015
641.56000	0.25076	0.00023
641.60000	0.26578	0.00061
641.64000	0.27067	0.00058
641.68000	0.26832	0.00052
641.72000	0.26863	0.00048
641.76000	0.26109	0.00040
641.80000	0.26588	0.00051
641.84000	0.26573	0.00025
641.88000	0.25819	0.00025
641.92000	0.25636	0.00056
641.96000	0.24704	0.00023
642.00000	0.24689	0.00025
642.04000	0.24694	0.00041
642.08000	0.24419	0.00042
642.12000	0.23757	0.00042
642.16000	0.23462	0.00023
642.20000	0.21395	0.00060
642.24000	0.21787	0.00025
642.28000	0.20361	0.00052
642.32000	0.20356	0.00040
642.36000	0.19328	0.00048
642.40000	0.18920	0.00048
642.44000	0.17897	0.00056
642.48000	0.17036	0.00036
642.52000	0.16965	0.00033
642.56000	0.16522	0.00032
642.60000	0.16497	0.00034
642.64000	0.16115	0.00046
642.68000	0.15540	0.00060
642.72000	0.15647	0.00038
642.76000	0.14521	0.00040
642.80000	0.15372	0.00047
642.84000	0.15937	0.00065
642.88000	0.15290	0.00020
642.92000	0.15255	0.00036
642.96000	0.14048	0.00041
643.00000	0.14435	0.00039
643.04000	0.14491	0.00036
643.08000	0.14226	0.00058
643.12000	0.14425	0.00044
643.16000	0.15377	0.00041
643.20000	0.15377	0.00057
643.24000	0.14878	0.00033
643.28000	0.14725	0.00040
643.32000	0.14817	0.00034
643.36000	0.14812	0.00061
643.40000	0.14139	0.00055
643.44000	0.13921	0.00062
643.48000	0.13936	0.00020
643.52000	0.13681	0.00031
643.56000	0.14425	0.00038
643.60000	0.13284	0.00041
643.64000	0.14588	0.00039
643.68000	0.14888	0.00036
643.72000	0.13875	0.00032
643.76000	0.14511	0.00041
643.80000	0.14526	0.00055
643.84000	0.14353	0.00052
643.88000	0.13406	0.00050
643.92000	0.13966	0.00064
643.96000	0.14501	0.00033
644.00000	0.14338	0.00042
644.04000	0.14440	0.00036
644.08000	0.14409	0.00034
644.12000	0.14226	0.00058
644.16000	0.14501	0.00023
644.20000	0.14145	0.00065
644.24000	0.14638	0.00039
644.28000	0.13355	0.00020
644.32000	0.13865	0.00038
644.36000	0.13854	0.00047
644.40000	0.13885	0.00050
644.44000	0.14720	0.00034
644.48000	0.13411	0.00036
644.52000	0.14338	0.00036
644.56000	0.14715	0.00047
644.60000	0.14129	0.00046
644.64000	0.13941	0.00023
644.68000	0.13946	0.00034
644.72000	0.13747	0.00041
644.76000	0.13691	0.00025
644.80000	0.14623	0.00051
644.84000	0.13595	0.00025
644.88000	0.13401	0.00046
644.92000	0.15102	0.00036
644.96000	0.15102	0.00036
645.00000	0.14633	0.00048
645.04000	0.14308	0.00052
645.08000	0.14526	0.00031
645.12000	0.14684	0.00027
645.16000	0.14053	0.00034
645.20000	0.14496	0.00038
645.24000	0.13763	0.00031
645.28000	0.13747	0.00025
645.32000	0.14710	0.00061
645.36000	0.13691	0.00034
645.40000	0.14786	0.00048
645.44000	0.14618	0.00052
645.48000	0.14129	0.00039
645.52000	0.14980	0.00023
645.56000	0.14995	0.00046
645.60000	0.13921	0.00042
645.64000	0.13915	0.00038
645.68000	0.14246	0.00033
645.72000	0.14420	0.00040
645.76000	0.14323	0.00031
645.80000	0.14623	0.00040
645.84000	0.13956	0.00041
645.88000	0.13956	0.00034
645.92000	0.14526	0.00031
645.96000	0.14710	0.00025
646.00000	0.14333	0.00032
646.04000	0.14990	0.00027
646.08000	0.14608	0.00041
646.12000	0.13681	0.00038
646.16000	0.13651	0.00025
646.20000	0.14328	0.00048
646.24000	0.14201	0.00034
646.28000	0.14139	0.00038
646.32000	0.14129	0.00039
646.36000	0.13753	0.00034
646.40000	0.14817	0.00025
646.44000	0.14817	0.00041
646.48000	0.14552	0.00056
646.52000	0.13758	0.00033
646.56000	0.14435	0.00039
646.60000	0.14226	0.00048
646.64000	0.14598	0.00059
646.68000	0.13844	0.00034
646.72000	0.14109	0.00034
646.76000	0.14114	0.00033
646.80000	0.14236	0.00048
646.84000	0.14684	0.00027
646.88000	0.14323	0.00031
646.92000	0.14246	0.00033
646.96000	0.14323	0.00038
647.00000	0.14414	0.00034
647.04000	0.14430	0.00036
647.08000	0.14425	0.00059
647.12000	0.14435	0.00046
647.16000	0.14700	0.00031
647.20000	0.14506	0.00057
647.24000	0.13681	0.00031
647.28000	0.14033	0.00036
647.32000	0.14048	0.00041
647.36000	0.14043	0.00046
647.40000	0.13844	0.00047
647.44000	0.14521	0.00046
647.48000	0.14308	0.00041
647.52000	0.14613	0.00047
647.56000	0.14526	0.00038
647.60000	0.14211	0.00034
647.64000	0.14226	0.00053
647.68000	0.14980	0.00056
647.72000	0.14165	0.00023
647.76000	0.13941	0.00056
647.80000	0.14145	0.00060
647.84000	0.15000	0.00042
647.88000	0.14425	0.00038
647.92000	0.14435	0.00039
647.96000	0.14445	0.00044
648.00000	0.14898	0.00058
648.04000	0.14425	0.00055
648.08000	0.15168	0.00034
648.12000	0.14496	0.00044
648.16000	0.13926	0.00032
648.20000	0.15351	0.00060
648.24000	0.15351	0.00051
648.28000	0.14700	0.00020
648.32000	0.13849	0.00025
648.36000	0.14725	0.00065
648.40000	0.14241	0.00038
648.44000	0.13763	0.00031
648.48000	0.14781	0.00055
648.52000	0.14801	0.00055
648.56000	0.15097	0.00046
648.60000	0.14873	0.00061
648.64000	0.15092	0.00036
648.68000	0.14430	0.00048
648.72000	0.15112	0.00023
648.76000	0.14231	0.00039
648.80000	0.14226	0.00036
648.84000	0.13951	0.00034
648.88000	0.13763	0.00020
648.92000	0.14445	0.00031
648.96000	0.13951	0.00069
649.00000	0.14893	0.00032
649.04000	0.14328	0.00036
649.08000	0.14801	0.00050
649.12000	0.14761	0.00061
649.16000	0.14618	0.00047
649.20000	0.14608	0.00061
649.24000	0.14898	0.00048
649.28000	0.14985	0.00038
649.32000	0.14817	0.00047
649.36000	0.15066	0.00047
649.40000	0.15081	0.00023
649.44000	0.14241	0.00044
649.48000	0.13926	0.00039
649.52000	0.14995	0.00039
649.56000	0.13870	0.00036
649.60000	0.14501	0.00046
649.64000	0.14679	0.00031
649.68000	0.14694	0.00036
649.72000	0.14995	0.00051
649.76000	0.14119	0.00044
649.80000	0.14343	0.00031
649.84000	0.14700	0.00038
649.88000	0.14827	0.00040
649.92000	0.14700	0.00020
649.96000	0.15076	0.00057
650.00000	0.15102	0.00048
650.04000	0.14710	0.00034
650.08000	0.14832	0.00044
650.12000	0.14145	0.00033
650.16000	0.14124	0.00048
650.20000	0.15453	0.00056
650.24000	0.14735	0.00027
650.28000	0.14694	0.00036
650.32000	0.14231	0.00046
650.36000	0.14822	0.00052
650.40000	0.15000	0.00053
650.44000	0.14735	0.00027
650.48000	0.15092	0.00042
650.52000	0.15183	0.00040
650.56000	0.14700	0.00038
650.60000	0.14715	0.00025
650.64000	0.14720	0.00041
650.68000	0.15071	0.00047
650.72000	0.14501	0.00033
650.76000	0.14608	0.00041
650.80000	0.14313	0.00047
650.84000	0.14786	0.00058
650.88000	0.14786	0.00036
650.92000	0.14313	0.00025
650.96000	0.15458	0.00053
651.00000	0.14908	0.00040
651.04000	0.15372	0.00041
651.08000	0.14053	0.00041
651.12000	0.14430	0.00048
651.16000	0.14409	0.00047
651.20000	0.14705	0.00033
651.24000	0.13834	0.00038
651.28000	0.14822	0.00061
651.32000	0.14705	0.00033
651.36000	0.14211	0.00047
651.40000	0.14974	0.00052
651.44000	0.14710	0.00025
651.48000	0.14710	0.00034
651.52000	0.14613	0.00041
651.56000	0.13956	0.00047
651.60000	0.14689	0.00039
651.64000	0.14898	0.00036
651.68000	0.14058	0.00034
651.72000	0.14246	0.00051
651.76000	0.14236	0.00062
651.80000	0.14618	0.00047
651.84000	0.14104	0.00041
651.88000	0.14333	0.00039
651.92000	0.14710	0.00034
651.96000	0.14343	0.00031
652.00000	0.14593	0.00036
652.04000	0.14262	0.00025
652.08000	0.14226	0.00053
652.12000	0.14603	0.00046
652.16000	0.14516	0.00041
652.20000	0.14913	0.00034
652.24000	0.14221	0.00038
652.28000	0.14506	0.00034
652.32000	0.13747	0.00047
652.36000	0.13742	0.00041
652.40000	0.14211	0.00034
652.44000	0.14435	0.00051
652.48000	0.14644	0.00027
652.52000	0.14043	0.00033
652.56000	0.14608	0.00025
652.60000	0.13931	0.00036
652.64000	0.13956	0.00052
652.68000	0.14995	0.00039
652.72000	0.14898	0.00027
652.76000	0.14603	0.00056
652.80000	0.14119	0.00031
652.84000	0.14883	0.00059
652.88000	0.14796	0.00027
652.92000	0.14613	0.00041
652.96000	0.14608	0.00041
653.00000	0.15265	0.00051
653.04000	0.14129	0.00032
653.08000	0.13513	0.00036
653.12000	0.14124	0.00042
653.16000	0.14430	0.00042
653.20000	0.14231	0.00039
653.24000	0.14262	0.00034
653.28000	0.14694	0.00036
653.32000	0.14801	0.00055
653.36000	0.14715	0.00041
653.40000	0.15275	0.00047
653.44000	0.14705	0.00040
653.48000	0.14420	0.00051
653.52000	0.14435	0.00032
653.56000	0.14521	0.00040
653.60000	0.14430	0.00042
653.64000	0.14868	0.00041
653.68000	0.14236	0.00042
653.72000	0.14236	0.00036
653.76000	0.15662	0.00042
653.80000	0.14608	0.00034
653.84000	0.14608	0.00047
653.88000	0.15076	0.00061
653.92000	0.14588	0.00032
653.96000	0.15545	0.00068
654.00000	0.15158	0.00038
654.04000	0.14985	0.00031
654.08000	0.15367	0.00056
654.12000	0.15397	0.00048
654.16000	0.15473	0.00057
654.20000	0.15463	0.00038
654.24000	0.15255	0.00042
654.28000	0.15066	0.00069
654.32000	0.16120	0.00036
654.36000	0.15835	0.00052
654.40000	0.16497	0.00052
654.44000	0.16502	0.00041
654.48000	0.16018	0.00048
654.52000	0.16008	0.00042
654.56000	0.16303	0.00023
654.60000	0.17082	0.00032
654.64000	0.15759	0.00032
654.68000	0.17535	0.00042
654.72000	0.17525	0.00046
654.76000	0.17322	0.00056
654.80000	0.17413	0.00041
654.84000	0.17143	0.00031
654.88000	0.17999	0.00039
654.92000	0.17637	0.00048
654.96000	0.18202	0.00032
655.00000	0.18192	0.00031
655.04000	0.18090	0.00038
655.08000	0.18208	0.00036
655.12000	0.18126	0.00034
655.16000	0.18396	0.00038
655.20000	0.18202	0.00046
655.24000	0.18564	0.00042
655.28000	0.17332	0.00036
655.32000	0.17317	0.00047
655.36000	0.18574	0.00040
655.40000	0.18187	0.00046
655.44000	0.17846	0.00060
655.48000	0.17327	0.00031
655.52000	0.17994	0.00053
655.56000	0.16538	0.00040
655.60000	0.16507	0.00023
655.64000	0.17235	0.00046
655.68000	0.17164	0.00041
655.72000	0.16426	0.00042
655.76000	0.16420	0.00056
655.80000	0.15010	0.00033
655.84000	0.15275	0.00041
655.88000	0.15239	0.00038
655.92000	0.15173	0.00041
655.96000	0.15743	0.00033
656.00000	0.15265	0.00060
656.04000	0.14964	0.00034
656.08000	0.15020	0.00034
656.12000	0.14628	0.00038
656.16000	0.14903	0.00031
656.20000	0.14883	0.00068
656.24000	0.13620	0.00060
656.28000	0.14430	0.00053
656.32000	0.14440	0.00048
656.36000	0.14058	0.00047
656.40000	0.14720	0.00025
656.44000	0.13946	0.00041
656.48000	0.13936	0.00064
656.52000	0.14440	0.00036
656.56000	0.14618	0.00047
656.60000	0.13865	0.00031
656.64000	0.14516	0.00041
656.68000	0.15168	0.00052
656.72000	0.14990	0.00048
656.76000	0.14313	0.00047
656.80000	0.14318	0.00023
656.84000	0.14822	0.00041
656.88000	0.14806	0.00040
656.92000	0.14226	0.00053
656.96000	0.15382	0.00025
657.00000	0.14404	0.00034
657.04000	0.14700	0.00038
657.08000	0.14694	0.00027
657.12000	0.14613	0.00041
657.16000	0.14801	0.00038
657.20000	0.13742	0.00047
657.24000	0.14913	0.00025
657.28000	0.15295	0.00015
657.32000	0.13875	0.00032
657.36000	0.13844	0.00025
657.40000	0.14343	0.00050
657.44000	0.14980	0.00023
657.48000	0.14511	0.00034
657.52000	0.14806	0.00056
657.56000	0.14593	0.00036
657.60000	0.14806	0.00060
657.64000	0.14068	0.00031
657.68000	0.14063	0.00023
657.72000	0.14313	0.00025
657.76000	0.14801	0.00044
657.80000	0.14038	0.00031
657.84000	0.14048	0.00041
657.88000	0.14990	0.00048
657.92000	0.14700	0.00031
657.96000	0.14730	0.00038
658.00000	0.14425	0.00038
658.04000	0.14710	0.00034
658.08000	0.15377	0.00041
658.12000	0.15285	0.00023
658.16000	0.14817	0.00065
658.20000	0.15372	0.00052
658.24000	0.14715	0.00025
658.28000	0.14715	0.00041
658.32000	0.15005	0.00044
658.36000	0.14623	0.00056
658.40000	0.14980	0.00023
658.44000	0.14720	0.00034
658.48000	0.14725	0.00040
658.52000	0.15183	0.00033
658.56000	0.15199	0.00032
658.60000	0.14588	0.00046
658.64000	0.15662	0.00027
658.68000	0.15463	0.00050
658.72000	0.15178	0.00034
658.76000	0.15932	0.00034
658.80000	0.15193	0.00042
658.84000	0.15173	0.00025
658.88000	0.16028	0.00046
658.92000	0.16033	0.00052
658.96000	0.15438	0.00051
659.00000	0.17138	0.00015
659.04000	0.16685	0.00050
659.08000	0.16604	0.00034
659.12000	0.17999	0.00046
659.16000	0.18029	0.00047
659.20000	0.17821	0.00034
659.24000	0.18309	0.00036
659.28000	0.18019	0.00041
659.32000	0.18650	0.00055
659.36000	0.19419	0.00036
659.40000	0.19898	0.00046
659.44000	0.19918	0.00033
659.48000	0.19343	0.00061
659.52000	0.19725	0.00036
659.56000	0.21018	0.00023
659.60000	0.20641	0.00036
659.64000	0.20840	0.00044
659.68000	0.20275	0.00033
659.72000	0.20254	0.00060
659.76000	0.21303	0.00042
659.80000	0.21858	0.00044
659.84000	0.22825	0.00020
659.88000	0.21588	0.00034
659.92000	0.22897	0.00038
659.96000	0.22245	0.00041
660.00000	0.22713	0.00047
660.04000	0.22718	0.00040
660.08000	0.22255	0.00034
660.12000	0.22245	0.00034
660.16000	0.21583	0.00061
660.20000	0.21970	0.00039
660.24000	0.22617	0.00033
660.28000	0.22046	0.00041
660.32000	0.22046	0.00041
660.36000	0.20193	0.00042
660.40000	0.21491	0.00034
660.44000	0.20911	0.00044
660.48000	0.20494	0.00023
660.52000	0.19725	0.00048
660.56000	0.20188	0.00032
660.60000	0.19623	0.00036
660.64000	0.19628	0.00039
660.68000	0.19547	0.00041
660.72000	0.19251	0.00057
660.76000	0.18656	0.00053
660.80000	0.18024	0.00041
660.84000	0.17917	0.00041
660.88000	0.17490	0.00051
660.92000	0.17525	0.00060
660.96000	0.16670	0.00058
661.00000	0.17714	0.00034
661.04000	0.17551	0.00031
661.08000	0.16568	0.00036
661.12000	0.15835	0.00052
661.16000	0.15932	0.00034
661.20000	0.15942	0.00057
661.24000	0.15086	0.00031
661.28000	0.15657	0.00051
661.32000	0.15285	0.00040
661.36000	0.14633	0.00048
661.40000	0.15372	0.00034
661.44000	0.14822	0.00061
661.48000	0.15372	0.00041
661.52000	0.15377	0.00047
661.56000	0.15937	0.00034
661.60000	0.13849	0.00052
661.64000	0.14694	0.00027
661.68000	0.14694	0.00027
661.72000	0.15178	0.00041
661.76000	0.14974	0.00034
661.80000	0.14959	0.00051
661.84000	0.14033	0.00053
661.88000	0.14730	0.00038
661.92000	0.14888	0.00036
661.96000	0.14593	0.00042
662.00000	0.14318	0.00033
662.04000	0.14129	0.00039
662.08000	0.14129	0.00056
662.12000	0.14990	0.00036
662.16000	0.14414	0.00041
662.20000	0.14791	0.00064
662.24000	0.13488	0.00025
662.28000	0.13498	0.00034
662.32000	0.13121	0.00044
662.36000	0.14043	0.00040
662.40000	0.14048	0.00025
662.44000	0.14414	0.00041
662.48000	0.13299	0.00040
662.52000	0.13763	0.00038
662.56000	0.14715	0.00041
662.60000	0.14318	0.00033
662.64000	0.13366	0.00051
662.68000	0.13376	0.00044
662.72000	0.14394	0.00050
662.76000	0.13941	0.00046
662.80000	0.13936	0.00038
662.84000	0.14338	0.00027
662.88000	0.14450	0.00033
662.92000	0.13483	0.00023
662.96000	0.14328	0.00036
663.00000	0.14302	0.00047
663.04000	0.13310	0.00027
663.08000	0.13666	0.00036
663.12000	0.14027	0.00023
663.16000	0.13931	0.00036
663.20000	0.14119	0.00020
663.24000	0.13773	0.00039
663.28000	0.13742	0.00041
663.32000	0.13503	0.00033
663.36000	0.14969	0.00025
663.40000	0.13681	0.00020
663.44000	0.14134	0.00070
663.48000	0.13493	0.00025
663.52000	0.13646	0.00034
663.56000	0.13676	0.00027
663.60000	0.13610	0.00050
663.64000	0.13926	0.00039
663.68000	0.13661	0.00038
663.72000	0.14119	0.00050
663.76000	0.13737	0.00040
663.80000	0.14038	0.00031
663.84000	0.13371	0.00042
663.88000	0.13381	0.00040
663.92000	0.14236	0.00036
663.96000	0.13040	0.00057
664.00000	0.13478	0.00055
664.04000	0.13758	0.00023
664.08000	0.13391	0.00047
664.12000	0.13019	0.00038
664.16000	0.13035	0.00041
664.20000	0.13483	0.00046
664.24000	0.12999	0.00044
664.28000	0.14430	0.00027
664.32000	0.13427	0.00044
664.36000	0.13019	0.00059
664.40000	0.13305	0.00044
664.44000	0.13915	0.00031
664.48000	0.13966	0.00055
664.52000	0.13676	0.00027
664.56000	0.13865	0.00031
664.60000	0.13732	0.00038
664.64000	0.13676	0.00036
664.68000	0.13585	0.00040
664.72000	0.13401	0.00040
664.76000	0.13396	0.00052
664.80000	0.13773	0.00051
664.84000	0.13493	0.00034
664.88000	0.13849	0.00025
664.92000	0.13758	0.00033
664.96000	0.13401	0.00051
665.00000	0.13951	0.00052
665.04000	0.13941	0.00046
665.08000	0.13666	0.00015
665.12000	0.13656	0.00040
665.16000	0.13315	0.00046
665.20000	0.12923	0.00033
665.24000	0.13595	0.00041
665.28000	0.14129	0.00023
665.32000	0.13951	0.00041
665.36000	0.13966	0.00059
665.40000	0.13325	0.00055
665.44000	0.13569	0.00032
665.48000	0.13503	0.00046
665.52000	0.12989	0.00041
665.56000	0.13941	0.00051
665.60000	0.13457	0.00038
665.64000	0.13462	0.00066
665.68000	0.13381	0.00046
665.72000	0.13289	0.00052
665.76000	0.14139	0.00031
665.80000	0.13844	0.00041
665.84000	0.13498	0.00041
665.88000	0.13590	0.00047
665.92000	0.13595	0.00041
665.96000	0.13671	0.00046
666.00000	0.13198	0.00065
666.04000	0.14145	0.00040
666.08000	0.13681	0.00038
666.12000	0.13101	0.00044
666.16000	0.13742	0.00034
666.20000	0.13503	0.00023
666.24000	0.13503	0.00023
666.28000	0.13829	0.00053
666.32000	0.13289	0.00041
666.36000	0.13849	0.00041
666.40000	0.13294	0.00041
666.44000	0.13595	0.00057
666.48000	0.13946	0.00052
666.52000	0.13951	0.00025
666.56000	0.13676	0.00027
666.60000	0.13656	0.00033
666.64000	0.13661	0.00038
666.68000	0.13854	0.00034
666.72000	0.13452	0.00046
666.76000	0.14262	0.00041
666.80000	0.13473	0.00036
666.84000	0.13462	0.00058
666.88000	0.13671	0.00023
666.92000	0.14129	0.00039
666.96000	0.14430	0.00058
667.00000	0.13411	0.00053
667.04000	0.13671	0.00032
667.08000	0.13396	0.00061
667.12000	0.13376	0.00020
667.16000	0.13024	0.00040
667.20000	0.14231	0.00064
667.24000	0.13376	0.00044
667.28000	0.13676	0.00036
667.32000	0.13503	0.00023
667.36000	0.13758	0.00040
667.40000	0.13758	0.00033
667.44000	0.13116	0.00036
667.48000	0.14246	0.00068
667.52000	0.13366	0.00032
667.56000	0.13961	0.00056
667.60000	0.14048	0.00025
667.64000	0.13371	0.00015
667.68000	0.14048	0.00034
667.72000	0.14033	0.00053
667.76000	0.14043	0.00056
667.80000	0.14440	0.00042
667.84000	0.13865	0.00020
667.88000	0.13305	0.00031
667.92000	0.13294	0.00052
667.96000	0.13691	0.00041
668.00000	0.13702	0.00041
668.04000	0.14119	0.00038
668.08000	0.14058	0.00034
668.12000	0.13381	0.00051
668.16000	0.14139	0.00031
668.20000	0.12928	0.00041
668.24000	0.13870	0.00048
668.28000	0.13829	0.00042
668.32000	0.13844	0.00047
668.36000	0.13014	0.00042
668.40000	0.13585	0.00046
668.44000	0.14053	0.00034
668.48000	0.13386	0.00052
668.52000	0.14145	0.00040
668.56000	0.13498	0.00052
668.60000	0.13508	0.00044
668.64000	0.13101	0.00038
668.68000	0.13676	0.00042
668.72000	0.14134	0.00027
668.76000	0.13585	0.00051
668.80000	0.13483	0.00040
668.84000	0.13870	0.00053
668.88000	0.13875	0.00039
668.92000	0.13279	0.00046
668.96000	0.13590	0.00052
669.00000	0.13742	0.00041
669.04000	0.13865	0.00031
669.08000	0.13753	0.00041
669.12000	0.13106	0.00042
669.16000	0.13773	0.00023
669.20000	0.13753	0.00041
669.24000	0.13732	0.00044
669.28000	0.13299	0.00046
669.32000	0.13859	0.00040
669.36000	0.13182	0.00047
669.40000	0.13666	0.00036
669.44000	0.15081	0.00023
669.48000	0.15086	0.00050
669.52000	0.13401	0.00060
669.56000	0.13198	0.00040
669.60000	0.13681	0.00050
669.64000	0.13681	0.00038
669.68000	0.13493	0.00025
669.72000	0.14053	0.00041
669.76000	0.14033	0.00053
669.80000	0.13763	0.00020
669.84000	0.14048	0.00041
669.88000	0.13198	0.00068
669.92000	0.13595	0.00057
669.96000	0.13136	0.00041
670.00000	0.13401	0.00065
670.04000	0.12953	0.00048
670.08000	0.12912	0.00027
670.12000	0.14985	0.00031
670.16000	0.13961	0.00056
670.20000	0.13478	0.00031
670.24000	0.14333	0.00032
670.28000	0.13951	0.00061
670.32000	0.13569	0.00032
670.36000	0.13579	0.00038
670.40000	0.13208	0.00027
670.44000	0.13386	0.00025
670.48000	0.13111	0.00046
670.52000	0.13361	0.00036
670.56000	0.14114	0.00033
670.60000	0.13676	0.00042
670.64000	0.13131	0.00034
670.68000	0.13106	0.00053
670.72000	0.13289	0.00047
670.76000	0.14165	0.00040
670.80000	0.12816	0.00055
670.84000	0.13411	0.00042
670.88000	0.13203	0.00055
670.92000	0.13747	0.00047
670.96000	0.13763	0.00038
671.00000	0.13870	0.00053
671.04000	0.13523	0.00036
671.08000	0.13854	0.00061
671.12000	0.13966	0.00031
671.16000	0.14134	0.00036
671.20000	0.13406	0.00059
671.24000	0.13386	0.00057
671.28000	0.14221	0.00031
671.32000	0.13371	0.00070
671.36000	0.13401	0.00051
671.40000	0.13574	0.00036
671.44000	0.13376	0.00050
671.48000	0.13493	0.00034
671.52000	0.13208	0.00048
671.56000	0.13218	0.00027
671.60000	0.13585	0.00046
671.64000	0.13483	0.00051
671.68000	0.13406	0.00038
671.72000	0.13218	0.00015
671.76000	0.13350	0.00046
671.80000	0.12831	0.00041
671.84000	0.12800	0.00048
671.88000	0.14094	0.00046
671.92000	0.13198	0.00033
671.96000	0.13411	0.00053
672.00000	0.13498	0.00025
672.04000	0.13488	0.00025
672.08000	0.13086	0.00052
672.12000	0.13101	0.00031
672.16000	0.13299	0.00040
672.20000	0.13218	0.00053
672.24000	0.14043	0.00046
672.28000	0.13676	0.00027
672.32000	0.13294	0.00034
672.36000	0.13646	0.00041
672.40000	0.13946	0.00047
672.44000	0.13926	0.00032
672.48000	0.13839	0.00040
672.52000	0.13564	0.00048
672.56000	0.12419	0.00047
672.60000	0.13198	0.00040
672.64000	0.14134	0.00027
672.68000	0.13498	0.00034
672.72000	0.13498	0.00025
672.76000	0.13488	0.00047
672.80000	0.14022	0.00036
672.84000	0.13666	0.00036
672.88000	0.13661	0.00031
672.92000	0.13279	0.00060
672.96000	0.13656	0.00046
673.00000	0.13381	0.00046
673.04000	0.13396	0.00041
673.08000	0.13177	0.00051
673.12000	0.13758	0.00046
673.16000	0.13753	0.00047
673.20000	0.13004	0.00036
673.24000	0.13009	0.00051
673.28000	0.13478	0.00020
673.32000	0.13478	0.00038
673.36000	0.13941	0.00033
673.40000	0.13931	0.00048
673.44000	0.13768	0.00048
673.48000	0.14063	0.00040
673.52000	0.13208	0.00048
673.56000	0.14145	0.00040
673.60000	0.14139	0.00038
673.64000	0.13101	0.00055
673.68000	0.13753	0.00041
673.72000	0.13299	0.00040
673.76000	0.13310	0.00053
673.80000	0.12912	0.00036
673.84000	0.13554	0.00033
673.88000	0.14089	0.00031
673.92000	0.14104	0.00025
673.96000	0.13294	0.00034
674.00000	0.13656	0.00033
674.04000	0.13355	0.00038
674.08000	0.13391	0.00057
674.12000	0.12918	0.00050
674.16000	0.12836	0.00047
674.20000	0.12800	0.00042
674.24000	0.13865	0.00059
674.28000	0.12744	0.00055
674.32000	0.13305	0.00038
674.36000	0.13101	0.00038
674.40000	0.13305	0.00038
674.44000	0.12653	0.00039
674.48000	0.13096	0.00040
674.52000	0.13116	0.00048
674.56000	0.13417	0.00046
674.60000	0.13691	0.00034
674.64000	0.13019	0.00064
674.68000	0.13101	0.00050
674.72000	0.13004	0.00042
674.76000	0.13203	0.00031
674.80000	0.13208	0.00042
674.84000	0.13768	0.00036
674.88000	0.13854	0.00025
674.92000	0.12907	0.00032
674.96000	0.12938	0.00034
675.00000	0.13009	0.00023
675.04000	0.12434	0.00033
675.08000	0.12444	0.00015
675.12000	0.13004	0.00048
675.16000	0.12821	0.00046
675.20000	0.12831	0.00034
675.24000	0.13218	0.00036
675.28000	0.13391	0.00047
675.32000	0.12526	0.00041
675.36000	0.12739	0.00051
675.40000	0.12724	0.00061
675.44000	0.13371	0.00053
675.48000	0.12062	0.00034
675.52000	0.13467	0.00032
675.56000	0.13075	0.00023
675.60000	0.13982	0.00058
675.64000	0.13101	0.00031
675.68000	0.13111	0.00039
675.72000	0.12617	0.00065
675.76000	0.13926	0.00039
675.80000	0.12831	0.00041
675.84000	0.12933	0.00041
675.88000	0.12999	0.00044
675.92000	0.13473	0.00036
675.96000	0.13478	0.00038
676.00000	0.13279	0.00040
676.04000	0.13381	0.00040
676.08000	0.12831	0.00025
676.12000	0.12923	0.00033
676.16000	0.13009	0.00046
676.20000	0.12622	0.00057
676.24000	0.12963	0.00036
676.28000	0.12907	0.00046
676.32000	0.13579	0.00044
676.36000	0.13096	0.00051
676.40000	0.12220	0.00034
676.44000	0.13187	0.00047
676.48000	0.13564	0.00036
676.52000	0.12999	0.00038
676.56000	0.13009	0.00039
676.60000	0.12816	0.00031
676.64000	0.13101	0.00050
676.68000	0.13091	0.00041
676.72000	0.13574	0.00042
676.76000	0.13086	0.00041
676.80000	0.13208	0.00058
676.84000	0.13376	0.00044
676.88000	0.13417	0.00056
676.92000	0.12617	0.00046
676.96000	0.12999	0.00044
677.00000	0.13096	0.00033
677.04000	0.12638	0.00040
677.08000	0.13009	0.00051
677.12000	0.12923	0.00046
677.16000	0.12933	0.00052
677.20000	0.12907	0.00032
677.24000	0.12444	0.00042
677.28000	0.13096	0.00040
677.32000	0.13035	0.00034
677.36000	0.13595	0.00041
677.40000	0.12907	0.00039
677.44000	0.12918	0.00044
677.48000	0.13366	0.00039
677.52000	0.13564	0.00048
677.56000	0.13834	0.00055
677.60000	0.13585	0.00033
677.64000	0.12632	0.00052
677.68000	0.12994	0.00046
677.72000	0.13590	0.00047
677.76000	0.13600	0.00041
677.80000	0.12806	0.00032
677.84000	0.12444	0.00053
677.88000	0.13681	0.00020
677.92000	0.13676	0.00027
677.96000	0.13671	0.00039
678.00000	0.13742	0.00041
678.04000	0.13747	0.00047
678.08000	0.13411	0.00058
678.12000	0.13106	0.00042
678.16000	0.12632	0.00047
678.20000	0.12836	0.00041
678.24000	0.12454	0.00027
678.28000	0.12541	0.00031
678.32000	0.12531	0.00034
678.36000	0.12459	0.00044
678.40000	0.13121	0.00044
678.44000	0.13299	0.00040
678.48000	0.13310	0.00036
678.52000	0.13192	0.00047
678.56000	0.12912	0.00036
678.60000	0.13590	0.00034
678.64000	0.13590	0.00052
678.68000	0.13483	0.00051
678.72000	0.13483	0.00040
678.76000	0.12831	0.00041
678.80000	0.13187	0.00061
678.84000	0.12918	0.00038
678.88000	0.12638	0.00046
678.92000	0.12658	0.00036
678.96000	0.13564	0.00048
679.00000	0.12892	0.00033
679.04000	0.12245	0.00039
679.08000	0.13386	0.00052
679.12000	0.12800	0.00048
679.16000	0.13554	0.00040
679.20000	0.12816	0.00038
679.24000	0.12836	0.00025
679.28000	0.13513	0.00042
679.32000	0.12632	0.00047
679.36000	0.12520	0.00061
679.40000	0.13294	0.00041
679.44000	0.12836	0.00025
679.48000	0.12826	0.00034
679.52000	0.12841	0.00056
679.56000	0.13024	0.00040
679.60000	0.12912	0.00042
679.64000	0.12902	0.00036
679.68000	0.12928	0.00025
679.72000	0.12744	0.00064
679.76000	0.11889	0.00039
679.80000	0.11889	0.00056
679.84000	0.12923	0.00033
679.88000	0.13508	0.00038
679.92000	0.12933	0.00052
679.96000	0.13865	0.00038
680.00000	0.13213	0.00032
680.04000	0.12495	0.00036
680.08000	0.12638	0.00033
680.12000	0.12607	0.00053
680.16000	0.12907	0.00032
680.20000	0.12994	0.00046
680.24000	0.13386	0.00061
680.28000	0.12856	0.00023
680.32000	0.12918	0.00038
680.36000	0.12627	0.00047
680.40000	0.12612	0.00038
680.44000	0.13666	0.00053
680.48000	0.13473	0.00027
680.52000	0.12617	0.00040
680.56000	0.12347	0.00046
680.60000	0.13305	0.00031
680.64000	0.13086	0.00034
680.68000	0.13742	0.00052
680.72000	0.13737	0.00040
680.76000	0.14063	0.00046
680.80000	0.13004	0.00048
680.84000	0.13187	0.00034
680.88000	0.13299	0.00040
680.92000	0.13126	0.00033
680.96000	0.12989	0.00041
681.00000	0.13030	0.00034
681.04000	0.13320	0.00027
681.08000	0.12750	0.00042
681.12000	0.13457	0.00075
681.16000	0.13106	0.00036
681.20000	0.13493	0.00034
681.24000	0.13198	0.00023
681.28000	0.13228	0.00040
681.32000	0.13737	0.00033
681.36000	0.13483	0.00046
681.40000	0.13844	0.00052
681.44000	0.13310	0.00048
681.48000	0.13758	0.00040
681.52000	0.12999	0.00050
681.56000	0.13473	0.00036
681.60000	0.13483	0.00033
681.64000	0.12831	0.00025
681.68000	0.13579	0.00038
681.72000	0.14425	0.00050
681.76000	0.13396	0.00057
681.80000	0.13111	0.00032
681.84000	0.13854	0.00034
681.88000	0.13839	0.00056
681.92000	0.14068	0.00044
681.96000	0.14119	0.00031
682.00000	0.13569	0.00056
682.04000	0.14038	0.00020
682.08000	0.13763	0.00031
682.12000	0.13951	0.00047
682.16000	0.13946	0.00041
682.20000	0.13182	0.00041
682.24000	0.14231	0.00064
682.28000	0.13666	0.00036
682.32000	0.13391	0.00034
682.36000	0.13590	0.00065
682.40000	0.13473	0.00036
682.44000	0.13294	0.00047
682.48000	0.13305	0.00020
682.52000	0.13763	0.00038
682.56000	0.13406	0.00050
682.60000	0.13101	0.00031
682.64000	0.13086	0.00034
682.68000	0.13753	0.00047
682.72000	0.12912	0.00036
682.76000	0.12912	0.00058
682.80000	0.13035	0.00034
682.84000	0.13208	0.00042
682.88000	0.12638	0.00033
682.92000	0.13396	0.00057
682.96000	0.12918	0.00031
683.00000	0.13299	0.00040
683.04000	0.13305	0.00050
683.08000	0.13279	0.00023
683.12000	0.12811	0.00053
683.16000	0.12699	0.00048
683.20000	0.13024	0.00040
683.24000	0.12841	0.00046
683.28000	0.12520	0.00047
683.32000	0.12648	0.00053
683.36000	0.12627	0.00052
683.40000	0.12139	0.00027
683.44000	0.12551	0.00046
683.48000	0.13213	0.00051
683.52000	0.13299	0.00023
683.56000	0.12536	0.00040
683.60000	0.12831	0.00041
683.64000	0.12795	0.00031
683.68000	0.12851	0.00042
683.72000	0.12139	0.00036
683.76000	0.12744	0.00031
683.80000	0.12627	0.00069
683.84000	0.12877	0.00025
683.88000	0.12729	0.00034
683.92000	0.12312	0.00046
683.96000	0.12363	0.00046
684.00000	0.12999	0.00050
684.04000	0.12704	0.00046
684.08000	0.12724	0.00034
684.12000	0.12510	0.00044
684.16000	0.12912	0.00036
684.20000	0.12536	0.00040
684.24000	0.12531	0.00034
684.28000	0.12643	0.00031
684.32000	0.12541	0.00020
684.36000	0.12643	0.00038
684.40000	0.12240	0.00015
684.44000	0.12327	0.00047
684.48000	0.12444	0.00027
684.52000	0.12434	0.00056
684.56000	0.12001	0.00044
684.60000	0.12047	0.00027
684.64000	0.13198	0.00033
684.68000	0.12719	0.00046
684.72000	0.12918	0.00020
684.76000	0.12271	0.00041
684.80000	0.12831	0.00041
684.84000	0.12811	0.00036
684.88000	0.12546	0.00048
684.92000	0.12622	0.00047
684.96000	0.12912	0.00042
685.00000	0.13019	0.00050
685.04000	0.12439	0.00031
685.08000	0.12546	0.00027
685.12000	0.12520	0.00034
685.16000	0.13024	0.00040
685.20000	0.13218	0.00027
685.24000	0.12347	0.00051
685.28000	0.12378	0.00041
685.32000	0.11991	0.00051
685.36000	0.12358	0.00050
685.40000	0.13035	0.00025
685.44000	0.12994	0.00051
685.48000	0.12388	0.00038
685.52000	0.12149	0.00048
685.56000	0.12622	0.00034
685.60000	0.12184	0.00044
685.64000	0.13030	0.00041
685.68000	0.12042	0.00056
685.72000	0.12077	0.00023
685.76000	0.13121	0.00038
685.80000	0.11981	0.00050
685.84000	0.12169	0.00041
685.88000	0.11869	0.00057
685.92000	0.12872	0.00046
685.96000	0.11965	0.00041
686.00000	0.12016	0.00025
686.04000	0.12821	0.00040
686.08000	0.12536	0.00056
686.12000	0.12347	0.00051
686.16000	0.12826	0.00025
686.20000	0.12627	0.00034
686.24000	0.11691	0.00048
686.28000	0.11976	0.00051
686.32000	0.11986	0.00036
686.36000	0.12826	0.00047
686.40000	0.12072	0.00052
686.44000	0.12444	0.00027
686.48000	0.12744	0.00038
686.52000	0.12653	0.00046
686.56000	0.12342	0.00066
686.60000	0.12373	0.00041
686.64000	0.12245	0.00039
686.68000	0.12057	0.00051
686.72000	0.11853	0.00040
686.76000	0.12520	0.00034
686.80000	0.12251	0.00042
686.84000	0.12154	0.00031
686.88000	0.12999	0.00050
686.92000	0.13004	0.00042
686.96000	0.12434	0.00040
687.00000	0.12363	0.00040
687.04000	0.12077	0.00040
687.08000	0.12526	0.00041
687.12000	0.13131	0.00041
687.16000	0.11976	0.00046
687.20000	0.11945	0.00058
687.24000	0.12434	0.00040
687.28000	0.12128	0.00040
687.32000	0.12653	0.00032
687.36000	0.12607	0.00036
687.40000	0.12856	0.00023
687.44000	0.12561	0.00055
687.48000	0.12546	0.00027
687.52000	0.12083	0.00044
687.56000	0.12062	0.00034
687.60000	0.12261	0.00046
687.64000	0.12933	0.00025
687.68000	0.12067	0.00034
687.72000	0.12923	0.00046
687.76000	0.12510	0.00038
687.80000	0.12531	0.00047
687.84000	0.11859	0.00025
687.88000	0.11787	0.00032
687.92000	0.12821	0.00046
687.96000	0.12638	0.00040
688.00000	0.12251	0.00015
688.04000	0.11894	0.00027
688.08000	0.11864	0.00041
688.12000	0.12470	0.00034
688.16000	0.11874	0.00023
688.20000	0.12342	0.00042
688.24000	0.12444	0.00015
688.28000	0.11965	0.00052
688.32000	0.13361	0.00036
688.36000	0.13361	0.00058
688.40000	0.12368	0.00034
688.44000	0.12159	0.00046
688.48000	0.12439	0.00038
688.52000	0.12459	0.00020
688.56000	0.12928	0.00052
688.60000	0.12449	0.00032
688.64000	0.12383	0.00060
688.68000	0.12337	0.00044
688.72000	0.12184	0.00038
688.76000	0.12531	0.00047
688.80000	0.12164	0.00041
688.84000	0.12042	0.00023
688.88000	0.12424	0.00052
688.92000	0.12444	0.00036
688.96000	0.12408	0.00038
689.00000	0.12831	0.00041
689.04000	0.12811	0.00036
689.08000	0.12826	0.00047
689.12000	0.12515	0.00040
689.16000	0.12449	0.00023
689.20000	0.13590	0.00041
689.24000	0.13111	0.00023
689.28000	0.13086	0.00052
689.32000	0.12251	0.00042
689.36000	0.12434	0.00060
689.40000	0.12907	0.00046
689.44000	0.11869	0.00041
689.48000	0.12505	0.00048
689.52000	0.11477	0.00042
689.56000	0.11523	0.00031
689.60000	0.12459	0.00020
689.64000	0.12378	0.00052
689.68000	0.12709	0.00036
689.72000	0.12454	0.00015
689.76000	0.12841	0.00040
689.80000	0.12439	0.00055
689.84000	0.12424	0.00041
689.88000	0.12439	0.00044
689.92000	0.12424	0.00025
689.96000	0.12531	0.00041
